"","subid","trial.num","item","item1","item2","word.type","image.type","choice.side","response","rt","date","time","gender","age","language"
"1","1",1,"present.party_hat","party_hat","present","or","and/or","left","and",1547,"11/17/2015","15:00","F","35","English"
"2","1",2,"shorts.shirt","shorts","shirt","and","or/noun","left","or",1410,"11/17/2015","15:00","F","35","English"
"3","1",3,"necklace.dress","necklace","dress","or","or/noun","left","or",1333,"11/17/2015","15:00","F","35","English"
"4","1",4,"penguin.fish","penguin","fish","and","and/or","right","or",1336,"11/17/2015","15:00","F","35","English"
"5","1",5,"apple.pear","pear","apple","and","or/noun","left","or",1388,"11/17/2015","15:00","F","35","English"
"6","1",6,"tiger.lion","tiger","lion","and","and/noun","right","noun",1743,"11/17/2015","15:00","F","35","English"
"7","1",7,"carrot.strawberry","carrot","strawberry","or","and/noun","left","and",1105,"11/17/2015","15:00","F","35","English"
"8","1",8,"tree.flower","flower","tree","and","and/or","right","or",1480,"11/17/2015","15:00","F","35","English"
"9","1",9,"cupcake.popsicle","popsicle","cupcake","and","or/noun","left","or",1334,"11/17/2015","15:00","F","35","English"
"10","1",10,"chicken.duck","chicken","duck","noun","and/or","right","or",3404,"11/17/2015","15:00","F","35","English"
"11","1",11,"frog.turtle","turtle","frog","noun","and/noun","right","noun",1812,"11/17/2015","15:00","F","35","English"
"12","1",12,"cookie.pretzel","pretzel","cookie","noun","or/noun","right","noun",1212,"11/17/2015","15:00","F","35","English"
"13","1",13,"sock.shoe","shoe","sock","or","or/noun","left","or",1664,"11/17/2015","15:00","F","35","English"
"14","1",14,"train.firetruck","train","firetruck","and","and/noun","left","and",4548,"11/17/2015","15:01","F","35","English"
"15","1",15,"pig.goat","pig","goat","or","or/noun","left","or",3699,"11/17/2015","15:01","F","35","English"
"16","1",16,"banana.orange","orange","banana","noun","and/noun","right","noun",1899,"11/17/2015","15:01","F","35","English"
"17","1",17,"drum.guitar","drum","guitar","and","and/noun","left","and",1516,"11/17/2015","15:01","F","35","English"
"18","1",18,"butterfly.bee","bee","butterfly","or","and/or","left","and",1262,"11/17/2015","15:01","F","35","English"
"19","1",19,"dog.cat","dog","cat","noun","and/noun","right","noun",1374,"11/17/2015","15:01","F","35","English"
"20","1",20,"purse.watch","purse","watch","noun","and/noun","right","noun",1159,"11/17/2015","15:01","F","35","English"
"21","1",21,"plane.boat","boat","plane","or","and/noun","right","noun",3759,"11/17/2015","15:01","F","35","English"
"22","1",22,"car.bus","bus","car","and","or/noun","left","or",2518,"11/17/2015","15:01","F","35","English"
"23","1",23,"scissors.paintbrush","scissors","paintbrush","or","and/or","left","and",2386,"11/17/2015","15:01","F","35","English"
"24","1",24,"bird.monkey","monkey","bird","noun","or/noun","right","noun",1135,"11/17/2015","15:01","F","35","English"
"25","1",25,"pencil.crayon","crayon","pencil","noun","and/or","left","and",1274,"11/17/2015","15:01","F","35","English"
"26","1",26,"house.barn","house","barn","or","and/or","left","and",1203,"11/17/2015","15:01","F","35","English"
"27","1",27,"horse.cow","cow","horse","noun","or/noun","right","noun",1200,"11/17/2015","15:01","F","35","English"
"28","1",28,"cake.donut","donut","cake","or","and/noun","right","noun",965,"11/17/2015","15:01","F","35","English"
"29","1",29,"hat.mitten","mitten","hat","and","and/noun","left","and",1635,"11/17/2015","15:01","F","35","English"
"30","1",30,"table.chair","chair","table","or","and/noun","left","and",1018,"11/17/2015","15:01","F","35","English"
"31","1",31,"giraffe.elephant","giraffe","elephant","noun","or/noun","right","noun",1002,"11/17/2015","15:01","F","35","English"
"32","1",32,"comb.toothbrush","comb","toothbrush","or","or/noun","right","noun",2159,"11/17/2015","15:01","F","35","English"
"33","1",33,"bear.sheep","bear","sheep","and","and/or","right","or",1621,"11/17/2015","15:01","F","35","English"
"34","1",34,"clock.lamp","clock","lamp","noun","and/or","right","or",1613,"11/17/2015","15:01","F","35","English"
"35","1",35,"cup.spoon","spoon","cup","and","and/or","right","or",1513,"11/17/2015","15:01","F","35","English"
"36","1",36,"plate.fork","fork","plate","noun","and/or","right","or",1997,"11/17/2015","15:02","F","35","English"
"37","2",1,"butterfly.bee","bee","butterfly","or","or/noun","left","or",1854,"11/17/2015","14:57","F","25","English"
"38","2",2,"drum.guitar","drum","guitar","and","or/noun","left","or",3398,"11/17/2015","14:57","F","25","English"
"39","2",3,"clock.lamp","clock","lamp","or","and/noun","left","and",1222,"11/17/2015","14:57","F","25","English"
"40","2",4,"plane.boat","boat","plane","and","and/or","right","or",1531,"11/17/2015","14:57","F","25","English"
"41","2",5,"scissors.paintbrush","paintbrush","scissors","noun","or/noun","right","noun",1556,"11/17/2015","14:57","F","25","English"
"42","2",6,"comb.toothbrush","toothbrush","comb","and","and/noun","left","and",2691,"11/17/2015","14:57","F","25","English"
"43","2",7,"pencil.crayon","crayon","pencil","or","or/noun","left","or",1307,"11/17/2015","14:57","F","25","English"
"44","2",8,"horse.cow","cow","horse","noun","and/noun","left","and",1313,"11/17/2015","14:57","F","25","English"
"45","2",9,"giraffe.elephant","giraffe","elephant","and","and/noun","right","noun",2043,"11/17/2015","14:57","F","25","English"
"46","2",10,"banana.orange","banana","orange","noun","and/noun","right","noun",786,"11/17/2015","14:57","F","25","English"
"47","2",11,"pig.goat","goat","pig","noun","and/or","right","or",2025,"11/17/2015","14:57","F","25","English"
"48","2",12,"purse.watch","watch","purse","and","and/noun","left","and",2487,"11/17/2015","14:57","F","25","English"
"49","2",13,"plate.fork","fork","plate","or","and/noun","left","and",4065,"11/17/2015","14:57","F","25","English"
"50","2",14,"necklace.dress","dress","necklace","and","and/or","right","or",2361,"11/17/2015","14:58","F","25","English"
"51","2",15,"carrot.strawberry","strawberry","carrot","or","and/noun","left","and",5671,"11/17/2015","14:58","F","25","English"
"52","2",16,"bird.monkey","bird","monkey","and","and/or","right","or",1892,"11/17/2015","14:58","F","25","English"
"53","2",17,"cookie.pretzel","cookie","pretzel","or","and/noun","left","and",3014,"11/17/2015","14:58","F","25","English"
"54","2",18,"cup.spoon","cup","spoon","noun","and/noun","right","noun",2456,"11/17/2015","14:58","F","25","English"
"55","2",19,"penguin.fish","fish","penguin","or","and/or","left","and",1262,"11/17/2015","14:58","F","25","English"
"56","2",20,"cake.donut","cake","donut","noun","and/or","right","or",1267,"11/17/2015","14:58","F","25","English"
"57","2",21,"apple.pear","pear","apple","or","and/or","left","and",1576,"11/17/2015","14:58","F","25","English"
"58","2",22,"tiger.lion","lion","tiger","or","or/noun","left","or",1394,"11/17/2015","14:58","F","25","English"
"59","2",23,"frog.turtle","turtle","frog","noun","or/noun","right","noun",3709,"11/17/2015","14:58","F","25","English"
"60","2",24,"chicken.duck","duck","chicken","and","or/noun","left","or",1259,"11/17/2015","14:58","F","25","English"
"61","2",25,"car.bus","car","bus","or","and/or","left","and",1198,"11/17/2015","14:58","F","25","English"
"62","2",26,"bear.sheep","sheep","bear","noun","and/noun","right","noun",3217,"11/17/2015","14:58","F","25","English"
"63","2",27,"dog.cat","dog","cat","noun","and/or","right","or",1293,"11/17/2015","14:58","F","25","English"
"64","2",28,"house.barn","barn","house","and","or/noun","left","or",1344,"11/17/2015","14:58","F","25","English"
"65","2",29,"cupcake.popsicle","cupcake","popsicle","noun","or/noun","right","noun",1187,"11/17/2015","14:58","F","25","English"
"66","2",30,"table.chair","table","chair","and","and/noun","left","and",1142,"11/17/2015","14:58","F","25","English"
"67","2",31,"present.party_hat","party_hat","present","noun","or/noun","right","noun",1254,"11/17/2015","14:58","F","25","English"
"68","2",32,"hat.mitten","hat","mitten","and","and/or","right","or",1787,"11/17/2015","14:58","F","25","English"
"69","2",33,"shorts.shirt","shorts","shirt","or","or/noun","left","or",1565,"11/17/2015","14:58","F","25","English"
"70","2",34,"sock.shoe","sock","shoe","noun","and/or","right","or",1504,"11/17/2015","14:59","F","25","English"
"71","2",35,"train.firetruck","firetruck","train","or","and/or","left","and",1356,"11/17/2015","14:59","F","25","English"
"72","2",36,"tree.flower","tree","flower","and","or/noun","left","or",1213,"11/17/2015","14:59","F","25","English"
