"","subid","trial.num","item","item1","item2","word.type","image.type","choice.side","response","rt","date","time","gender","age","language"
"1","1",1,"car.bus","car","bus","noun","and/noun","right","noun",6191,"11/18/2015","13:19","M","25","English"
"2","1",2,"frog.turtle","turtle","frog","or","or/noun","left","or",3922,"11/18/2015","13:19","M","25","English"
"3","1",3,"plane.boat","boat","plane","and","and/or","left","and",4921,"11/18/2015","13:19","M","25","English"
"4","1",4,"table.chair","table","chair","noun","and/or","left","and",4485,"11/18/2015","13:19","M","25","English"
"5","1",5,"bird.monkey","monkey","bird","and","and/noun","left","and",2189,"11/18/2015","13:19","M","25","English"
"6","1",6,"sock.shoe","sock","shoe","and","or/noun","left","or",1791,"11/18/2015","13:19","M","25","English"
"7","1",7,"tree.flower","flower","tree","noun","and/or","left","and",3159,"11/18/2015","13:19","M","25","English"
"8","1",8,"banana.orange","orange","banana","or","and/or","right","or",4338,"11/18/2015","13:19","M","25","English"
"9","1",9,"penguin.fish","penguin","fish","and","and/or","left","and",4216,"11/18/2015","13:19","M","25","English"
"10","1",10,"comb.toothbrush","toothbrush","comb","noun","or/noun","right","noun",2292,"11/18/2015","13:19","M","25","English"
"11","1",11,"purse.watch","purse","watch","and","and/or","left","and",5818,"11/18/2015","13:19","M","25","English"
"12","1",12,"house.barn","barn","house","or","and/noun","right","noun",5253,"11/18/2015","13:19","M","25","English"
"13","1",13,"drum.guitar","guitar","drum","or","or/noun","left","or",3101,"11/18/2015","13:20","M","25","English"
"14","1",14,"cookie.pretzel","pretzel","cookie","or","and/or","right","or",14168,"11/18/2015","13:20","M","25","English"
"15","1",15,"apple.pear","pear","apple","noun","and/noun","right","noun",3612,"11/18/2015","13:20","M","25","English"
"16","1",16,"carrot.strawberry","strawberry","carrot","or","and/or","right","or",4104,"11/18/2015","13:20","M","25","English"
"17","1",17,"hat.mitten","hat","mitten","or","and/noun","right","noun",5242,"11/18/2015","13:20","M","25","English"
"18","1",18,"dog.cat","cat","dog","and","and/noun","left","and",3526,"11/18/2015","13:20","M","25","English"
"19","1",21,"necklace.dress","dress","necklace","and","and/or","left","and",4312,"11/18/2015","13:20","M","25","English"
"20","1",22,"giraffe.elephant","elephant","giraffe","and","and/noun","left","and",1850,"11/18/2015","13:20","M","25","English"
"21","1",23,"butterfly.bee","bee","butterfly","noun","and/or","left","and",6633,"11/18/2015","13:21","M","25","English"
"22","1",24,"present.party_hat","party_hat","present","or","and/noun","right","noun",2608,"11/18/2015","13:21","M","25","English"
"23","1",26,"train.firetruck","firetruck","train","noun","or/noun","right","noun",181981,"11/18/2015","13:24","M","25","English"
"24","1",27,"shorts.shirt","shirt","shorts","or","and/noun","right","noun",3354,"11/18/2015","13:24","M","25","English"
"25","1",28,"horse.cow","cow","horse","and","or/noun","left","or",40781,"11/18/2015","13:25","M","25","English"
"26","1",29,"cupcake.popsicle","cupcake","popsicle","or","or/noun","left","or",4304,"11/18/2015","13:25","M","25","English"
"27","1",30,"plate.fork","fork","plate","or","and/or","right","or",2058,"11/18/2015","13:25","M","25","English"
"28","1",31,"pig.goat","goat","pig","noun","and/noun","right","noun",2482,"11/18/2015","13:25","M","25","English"
"29","1",32,"cake.donut","donut","cake","or","or/noun","left","or",1794,"11/18/2015","13:25","M","25","English"
"30","1",33,"clock.lamp","lamp","clock","noun","or/noun","right","noun",1435,"11/18/2015","13:25","M","25","English"
"31","1",34,"scissors.paintbrush","paintbrush","scissors","and","or/noun","left","or",2104,"11/18/2015","13:25","M","25","English"
"32","1",35,"pencil.crayon","pencil","crayon","noun","or/noun","right","noun",1737,"11/18/2015","13:25","M","25","English"
"33","1",36,"bear.sheep","sheep","bear","and","and/noun","left","and",1817,"11/18/2015","13:25","M","25","English"
"34","2",1,"apple.pear","apple","pear","or","and/or","left","and",4313,"11/18/2015","10:07","M","35","English"
"35","2",2,"dog.cat","cat","dog","and","and/noun","left","and",2976,"11/18/2015","10:07","M","35","English"
"36","2",3,"drum.guitar","drum","guitar","and","or/noun","left","or",4437,"11/18/2015","10:07","M","35","English"
"37","2",4,"cake.donut","donut","cake","noun","and/noun","right","noun",1999,"11/18/2015","10:07","M","35","English"
"38","2",5,"tree.flower","flower","tree","or","and/noun","left","and",3539,"11/18/2015","10:07","M","35","English"
"39","2",6,"plate.fork","fork","plate","noun","and/noun","right","noun",324,"11/18/2015","10:07","M","35","English"
"40","2",7,"hat.mitten","mitten","hat","or","or/noun","right","noun",328,"11/18/2015","10:07","M","35","English"
"41","2",8,"cup.spoon","spoon","cup","and","and/or","left","and",278,"11/18/2015","10:07","M","35","English"
"42","2",9,"bird.monkey","monkey","bird","noun","or/noun","left","or",352,"11/18/2015","10:07","M","35","English"
"43","2",10,"butterfly.bee","bee","butterfly","noun","and/or","right","or",293,"11/18/2015","10:07","M","35","English"
"44","2",11,"bear.sheep","sheep","bear","or","and/noun","right","noun",320,"11/18/2015","10:07","M","35","English"
"45","2",12,"car.bus","car","bus","noun","and/or","left","and",285,"11/18/2015","10:07","M","35","English"
"46","2",13,"comb.toothbrush","toothbrush","comb","and","and/noun","left","and",281,"11/18/2015","10:07","M","35","English"
"47","2",14,"table.chair","table","chair","or","or/noun","left","or",393,"11/18/2015","10:07","M","35","English"
"48","2",15,"purse.watch","watch","purse","noun","and/noun","right","noun",458,"11/18/2015","10:07","M","35","English"
"49","2",16,"chicken.duck","duck","chicken","or","and/or","right","or",2074,"11/18/2015","10:08","M","35","English"
"50","2",17,"pig.goat","pig","goat","or","or/noun","left","or",2734,"11/18/2015","10:08","M","35","English"
"51","2",18,"penguin.fish","penguin","fish","or","and/or","right","or",2756,"11/18/2015","10:08","M","35","English"
"52","2",19,"pencil.crayon","pencil","crayon","and","or/noun","left","or",3038,"11/18/2015","10:08","M","35","English"
"53","2",20,"frog.turtle","frog","turtle","or","and/noun","left","and",296,"11/18/2015","10:08","M","35","English"
"54","2",21,"carrot.strawberry","strawberry","carrot","and","and/or","left","and",499,"11/18/2015","10:08","M","35","English"
"55","2",22,"cookie.pretzel","pretzel","cookie","noun","and/noun","right","noun",333,"11/18/2015","10:08","M","35","English"
"56","2",23,"tiger.lion","lion","tiger","noun","or/noun","left","or",10071,"11/18/2015","10:08","M","35","English"
"57","2",24,"plane.boat","plane","boat","and","and/or","left","and",410,"11/18/2015","10:08","M","35","English"
"58","2",25,"necklace.dress","necklace","dress","and","and/noun","right","noun",420,"11/18/2015","10:08","M","35","English"
"59","2",26,"train.firetruck","train","firetruck","and","or/noun","right","noun",399,"11/18/2015","10:08","M","35","English"
"60","2",27,"banana.orange","banana","orange","noun","and/or","left","and",413,"11/18/2015","10:08","M","35","English"
"61","2",28,"present.party_hat","party_hat","present","and","and/or","left","and",302,"11/18/2015","10:08","M","35","English"
"62","2",29,"cupcake.popsicle","popsicle","cupcake","and","and/noun","left","and",396,"11/18/2015","10:08","M","35","English"
"63","2",30,"giraffe.elephant","giraffe","elephant","noun","or/noun","right","noun",1629,"11/18/2015","10:08","M","35","English"
"64","2",31,"clock.lamp","lamp","clock","or","and/noun","right","noun",328,"11/18/2015","10:08","M","35","English"
"65","2",32,"horse.cow","cow","horse","or","and/or","left","and",247,"11/18/2015","10:08","M","35","English"
"66","2",33,"sock.shoe","sock","shoe","and","or/noun","left","or",287,"11/18/2015","10:08","M","35","English"
"67","2",34,"scissors.paintbrush","scissors","paintbrush","or","or/noun","left","or",259,"11/18/2015","10:08","M","35","English"
"68","2",35,"house.barn","barn","house","noun","or/noun","right","noun",566,"11/18/2015","10:08","M","35","English"
"69","2",36,"shorts.shirt","shirt","shorts","noun","and/or","right","or",336,"11/18/2015","10:08","M","35","English"
"70","3",1,"banana.orange","banana","orange","and","or/noun","left","or",2428,"11/18/2015","10:08","F","25","English"
"71","3",2,"tiger.lion","tiger","lion","and","or/noun","left","or",1934,"11/18/2015","10:08","F","25","English"
"72","3",3,"pig.goat","pig","goat","noun","and/or","left","and",4868,"11/18/2015","10:08","F","25","English"
"73","3",4,"train.firetruck","train","firetruck","noun","or/noun","right","noun",1363,"11/18/2015","10:08","F","25","English"
"74","3",5,"scissors.paintbrush","paintbrush","scissors","or","and/noun","left","and",3843,"11/18/2015","10:08","F","25","English"
"75","3",6,"drum.guitar","guitar","drum","noun","or/noun","right","noun",1559,"11/18/2015","10:08","F","25","English"
"76","3",7,"hat.mitten","hat","mitten","and","and/or","right","or",1617,"11/18/2015","10:08","F","25","English"
"77","3",8,"cake.donut","cake","donut","noun","and/noun","right","noun",1311,"11/18/2015","10:08","F","25","English"
"78","3",9,"bird.monkey","bird","monkey","and","and/noun","left","and",1506,"11/18/2015","10:08","F","25","English"
"79","3",10,"carrot.strawberry","carrot","strawberry","or","and/or","left","and",1951,"11/18/2015","10:08","F","25","English"
"80","3",11,"necklace.dress","dress","necklace","and","and/noun","left","and",2200,"11/18/2015","10:08","F","25","English"
"81","3",12,"shorts.shirt","shirt","shorts","or","or/noun","left","or",1504,"11/18/2015","10:08","F","25","English"
"82","3",13,"purse.watch","purse","watch","and","or/noun","left","or",1908,"11/18/2015","10:08","F","25","English"
"83","3",14,"comb.toothbrush","comb","toothbrush","or","or/noun","left","or",1748,"11/18/2015","10:08","F","25","English"
"84","3",15,"plane.boat","plane","boat","or","or/noun","left","or",1731,"11/18/2015","10:09","F","25","English"
"85","3",16,"cupcake.popsicle","cupcake","popsicle","or","or/noun","left","or",1615,"11/18/2015","10:09","F","25","English"
"86","3",17,"cup.spoon","cup","spoon","noun","and/noun","left","and",1053,"11/18/2015","10:09","F","25","English"
"87","3",18,"dog.cat","cat","dog","noun","or/noun","right","noun",1369,"11/18/2015","10:09","F","25","English"
"88","3",19,"car.bus","car","bus","and","and/or","left","and",2024,"11/18/2015","10:09","F","25","English"
"89","3",20,"table.chair","chair","table","or","and/or","right","or",1450,"11/18/2015","10:09","F","25","English"
"90","3",21,"apple.pear","pear","apple","noun","and/or","right","or",2483,"11/18/2015","10:09","F","25","English"
"91","3",22,"giraffe.elephant","giraffe","elephant","noun","and/or","right","or",2594,"11/18/2015","10:09","F","25","English"
"92","3",23,"present.party_hat","party_hat","present","or","and/noun","left","and",1536,"11/18/2015","10:09","F","25","English"
"93","3",24,"horse.cow","horse","cow","noun","and/noun","right","noun",1109,"11/18/2015","10:09","F","25","English"
"94","3",25,"chicken.duck","chicken","duck","and","and/noun","left","and",1627,"11/18/2015","10:09","F","25","English"
"95","3",26,"penguin.fish","fish","penguin","or","and/or","right","or",1506,"11/18/2015","10:09","F","25","English"
"96","3",27,"cookie.pretzel","pretzel","cookie","and","and/or","left","and",1154,"11/18/2015","10:09","F","25","English"
"97","3",28,"sock.shoe","sock","shoe","or","and/or","right","or",1464,"11/18/2015","10:09","F","25","English"
"98","3",29,"plate.fork","fork","plate","or","and/noun","right","noun",1667,"11/18/2015","10:09","F","25","English"
"99","3",30,"frog.turtle","frog","turtle","noun","or/noun","right","noun",1492,"11/18/2015","10:09","F","25","English"
"100","3",31,"house.barn","barn","house","and","and/or","left","and",1126,"11/18/2015","10:09","F","25","English"
"101","3",32,"butterfly.bee","bee","butterfly","and","or/noun","left","or",1953,"11/18/2015","10:09","F","25","English"
"102","3",33,"pencil.crayon","pencil","crayon","noun","and/noun","right","noun",1249,"11/18/2015","10:09","F","25","English"
"103","3",34,"tree.flower","tree","flower","and","and/noun","left","and",1264,"11/18/2015","10:09","F","25","English"
"104","3",35,"bear.sheep","sheep","bear","noun","and/or","left","and",1758,"11/18/2015","10:09","F","25","English"
"105","3",36,"clock.lamp","lamp","clock","or","and/noun","left","and",1972,"11/18/2015","10:09","F","25","English"
"106","4",1,"cookie.pretzel","pretzel","cookie","noun","or/noun","right","noun",5532,"11/18/2015","8:05","M","25","English"
"107","4",2,"chicken.duck","duck","chicken","or","and/noun","left","and",3456,"11/18/2015","8:05","M","25","English"
"108","4",3,"pig.goat","goat","pig","noun","and/or","right","or",10511,"11/18/2015","8:06","M","25","English"
"109","4",4,"butterfly.bee","bee","butterfly","or","and/noun","left","and",18576,"11/18/2015","8:06","M","25","English"
"110","4",5,"cup.spoon","spoon","cup","and","and/noun","left","and",3173,"11/18/2015","8:06","M","25","English"
"111","4",6,"comb.toothbrush","comb","toothbrush","and","and/or","left","and",3883,"11/18/2015","8:06","M","25","English"
"112","4",7,"scissors.paintbrush","paintbrush","scissors","or","and/noun","right","noun",18464,"11/18/2015","8:06","M","25","English"
"113","4",8,"car.bus","car","bus","noun","or/noun","right","noun",1648,"11/18/2015","8:06","M","25","English"
"114","4",9,"necklace.dress","necklace","dress","and","and/or","left","and",9971,"11/18/2015","8:07","M","25","English"
"115","4",10,"banana.orange","banana","orange","noun","and/or","right","or",2706,"11/18/2015","8:07","M","25","English"
"116","4",11,"plane.boat","boat","plane","and","and/noun","left","and",3089,"11/18/2015","8:07","M","25","English"
"117","4",12,"train.firetruck","firetruck","train","or","and/or","right","or",2424,"11/18/2015","8:07","M","25","English"
"118","4",13,"apple.pear","pear","apple","and","and/or","left","and",2514,"11/18/2015","8:07","M","25","English"
"119","4",14,"carrot.strawberry","strawberry","carrot","or","or/noun","left","or",2947,"11/18/2015","8:07","M","25","English"
"120","4",15,"tree.flower","flower","tree","and","and/or","left","and",9361,"11/18/2015","8:07","M","25","English"
"121","4",16,"table.chair","chair","table","or","and/or","right","or",3016,"11/18/2015","8:07","M","25","English"
"122","4",17,"house.barn","barn","house","noun","or/noun","right","noun",1832,"11/18/2015","8:07","M","25","English"
"123","4",18,"hat.mitten","hat","mitten","and","or/noun","left","or",3386,"11/18/2015","8:07","M","25","English"
"124","4",19,"present.party_hat","present","party_hat","noun","and/noun","right","noun",2303,"11/18/2015","8:07","M","25","English"
"125","4",20,"shorts.shirt","shirt","shorts","noun","and/noun","right","noun",1649,"11/18/2015","8:07","M","25","English"
"126","4",21,"pencil.crayon","pencil","crayon","noun","or/noun","right","noun",6325,"11/18/2015","8:07","M","25","English"
"127","4",22,"clock.lamp","lamp","clock","or","and/noun","left","and",19198,"11/18/2015","8:08","M","25","English"
"128","4",23,"frog.turtle","frog","turtle","noun","and/or","right","or",3181,"11/18/2015","8:08","M","25","English"
"129","4",24,"sock.shoe","shoe","sock","noun","and/or","right","or",2795,"11/18/2015","8:08","M","25","English"
"130","4",25,"purse.watch","purse","watch","and","and/noun","left","and",2047,"11/18/2015","8:08","M","25","English"
"131","4",26,"bird.monkey","bird","monkey","noun","and/noun","right","noun",2762,"11/18/2015","8:08","M","25","English"
"132","4",27,"penguin.fish","fish","penguin","or","and/or","right","or",2081,"11/18/2015","8:08","M","25","English"
"133","4",28,"cake.donut","cake","donut","or","or/noun","left","or",2882,"11/18/2015","8:08","M","25","English"
"134","4",29,"horse.cow","horse","cow","noun","and/noun","right","noun",2052,"11/18/2015","8:08","M","25","English"
"135","4",30,"cupcake.popsicle","popsicle","cupcake","and","and/noun","left","and",2759,"11/18/2015","8:08","M","25","English"
"136","4",31,"tiger.lion","lion","tiger","and","or/noun","left","or",3274,"11/18/2015","8:08","M","25","English"
"137","4",32,"dog.cat","dog","cat","and","or/noun","left","or",2569,"11/18/2015","8:08","M","25","English"
"138","4",33,"bear.sheep","bear","sheep","or","or/noun","left","or",2474,"11/18/2015","8:08","M","25","English"
"139","4",34,"plate.fork","plate","fork","or","or/noun","left","or",2860,"11/18/2015","8:09","M","25","English"
"140","4",35,"drum.guitar","guitar","drum","or","and/or","right","or",3135,"11/18/2015","8:09","M","25","English"
"141","4",36,"giraffe.elephant","giraffe","elephant","and","or/noun","left","or",3715,"11/18/2015","8:09","M","25","English"
"142","5",1,"tree.flower","flower","tree","and","and/noun","left","and",3687,"11/18/2015","13:56","M","35","English"
"143","5",2,"present.party_hat","party_hat","present","and","or/noun","left","or",2536,"11/18/2015","13:56","M","35","English"
"144","5",3,"cup.spoon","cup","spoon","and","and/or","left","and",4576,"11/18/2015","13:56","M","35","English"
"145","5",4,"car.bus","bus","car","noun","or/noun","right","noun",1618,"11/18/2015","13:56","M","35","English"
"146","5",5,"horse.cow","horse","cow","and","or/noun","left","or",2336,"11/18/2015","13:57","M","35","English"
"147","5",6,"clock.lamp","lamp","clock","or","or/noun","left","or",2084,"11/18/2015","13:57","M","35","English"
"148","5",7,"comb.toothbrush","toothbrush","comb","or","and/or","right","or",2109,"11/18/2015","13:57","M","35","English"
"149","5",8,"scissors.paintbrush","scissors","paintbrush","and","or/noun","left","or",2853,"11/18/2015","13:57","M","35","English"
"150","5",9,"apple.pear","apple","pear","or","and/noun","right","noun",5056,"11/18/2015","13:57","M","35","English"
"151","5",10,"table.chair","table","chair","or","and/or","right","or",1953,"11/18/2015","13:57","M","35","English"
"152","5",11,"purse.watch","watch","purse","noun","and/noun","right","noun",1216,"11/18/2015","13:57","M","35","English"
"153","5",12,"hat.mitten","mitten","hat","noun","and/noun","right","noun",998,"11/18/2015","13:57","M","35","English"
"154","5",13,"frog.turtle","frog","turtle","and","and/noun","left","and",1605,"11/18/2015","13:57","M","35","English"
"155","5",14,"pig.goat","goat","pig","noun","and/noun","right","noun",1590,"11/18/2015","13:57","M","35","English"
"156","5",15,"necklace.dress","dress","necklace","noun","and/or","left","and",5204,"11/18/2015","13:57","M","35","English"
"157","5",16,"cupcake.popsicle","popsicle","cupcake","and","and/noun","left","and",1841,"11/18/2015","13:57","M","35","English"
"158","5",17,"train.firetruck","train","firetruck","noun","and/or","right","or",5300,"11/18/2015","13:57","M","35","English"
"159","5",18,"bear.sheep","sheep","bear","noun","and/or","right","or",1778,"11/18/2015","13:57","M","35","English"
"160","5",19,"tiger.lion","lion","tiger","and","and/or","left","and",2711,"11/18/2015","13:57","M","35","English"
"161","5",20,"plate.fork","fork","plate","or","and/or","right","or",3718,"11/18/2015","13:57","M","35","English"
"162","5",21,"plane.boat","plane","boat","noun","or/noun","right","noun",1324,"11/18/2015","13:57","M","35","English"
"163","5",22,"house.barn","barn","house","noun","and/or","right","or",1536,"11/18/2015","13:58","M","35","English"
"164","5",23,"drum.guitar","drum","guitar","or","and/or","right","or",1917,"11/18/2015","13:58","M","35","English"
"165","5",24,"cake.donut","cake","donut","and","or/noun","left","or",2187,"11/18/2015","13:58","M","35","English"
"166","5",25,"shorts.shirt","shorts","shirt","and","and/or","left","and",1338,"11/18/2015","13:58","M","35","English"
"167","5",26,"sock.shoe","sock","shoe","noun","and/noun","right","noun",1464,"11/18/2015","13:58","M","35","English"
"168","5",27,"banana.orange","orange","banana","or","or/noun","left","or",1465,"11/18/2015","13:58","M","35","English"
"169","5",28,"carrot.strawberry","carrot","strawberry","or","and/noun","right","noun",3090,"11/18/2015","13:58","M","35","English"
"170","5",29,"butterfly.bee","bee","butterfly","or","or/noun","left","or",2279,"11/18/2015","13:58","M","35","English"
"171","5",30,"penguin.fish","penguin","fish","or","and/noun","right","noun",1698,"11/18/2015","13:58","M","35","English"
"172","5",31,"pencil.crayon","pencil","crayon","noun","or/noun","right","noun",926,"11/18/2015","13:58","M","35","English"
"173","5",32,"bird.monkey","bird","monkey","or","or/noun","left","or",2234,"11/18/2015","13:58","M","35","English"
"174","5",33,"dog.cat","dog","cat","and","and/noun","left","and",1773,"11/18/2015","13:58","M","35","English"
"175","5",34,"giraffe.elephant","giraffe","elephant","and","and/or","left","and",1113,"11/18/2015","13:58","M","35","English"
"176","5",35,"cookie.pretzel","cookie","pretzel","or","and/noun","right","noun",1843,"11/18/2015","13:58","M","35","English"
"177","5",36,"chicken.duck","duck","chicken","noun","or/noun","right","noun",997,"11/18/2015","13:58","M","35","English"
"178","6",1,"table.chair","chair","table","noun","or/noun","right","noun",5601,"11/18/2015","11:21","F","35","English"
"179","6",2,"present.party_hat","party_hat","present","noun","and/noun","right","noun",3824,"11/18/2015","11:21","F","35","English"
"180","6",3,"car.bus","bus","car","noun","or/noun","right","noun",2664,"11/18/2015","11:21","F","35","English"
"181","6",4,"penguin.fish","fish","penguin","noun","and/noun","right","noun",1227,"11/18/2015","11:21","F","35","English"
"182","6",5,"cup.spoon","spoon","cup","noun","and/or","right","or",6184,"11/18/2015","11:21","F","35","English"
"183","6",6,"butterfly.bee","bee","butterfly","or","and/or","left","and",5078,"11/18/2015","11:21","F","35","English"
"184","6",7,"pig.goat","goat","pig","and","and/or","left","and",5552,"11/18/2015","11:21","F","35","English"
"185","6",8,"tree.flower","flower","tree","noun","and/or","right","or",2458,"11/18/2015","11:21","F","35","English"
"186","6",9,"drum.guitar","drum","guitar","and","or/noun","left","or",3089,"11/18/2015","11:21","F","35","English"
"187","6",10,"cupcake.popsicle","cupcake","popsicle","noun","and/noun","right","noun",1091,"11/18/2015","11:21","F","35","English"
"188","6",11,"purse.watch","watch","purse","noun","or/noun","right","noun",1081,"11/18/2015","11:21","F","35","English"
"189","6",12,"train.firetruck","firetruck","train","and","and/or","left","and",1811,"11/18/2015","11:21","F","35","English"
"190","6",13,"clock.lamp","clock","lamp","noun","and/or","right","or",2299,"11/18/2015","11:21","F","35","English"
"191","6",14,"bear.sheep","sheep","bear","or","or/noun","left","or",4272,"11/18/2015","11:22","F","35","English"
"192","6",15,"sock.shoe","shoe","sock","or","and/noun","left","and",4265,"11/18/2015","11:22","F","35","English"
"193","6",16,"tiger.lion","tiger","lion","or","and/or","right","or",3491,"11/18/2015","11:22","F","35","English"
"194","6",17,"pencil.crayon","crayon","pencil","noun","or/noun","right","noun",1174,"11/18/2015","11:22","F","35","English"
"195","6",18,"cake.donut","cake","donut","or","and/or","right","or",2549,"11/18/2015","11:22","F","35","English"
"196","6",19,"necklace.dress","necklace","dress","and","or/noun","left","or",9403,"11/18/2015","11:22","F","35","English"
"197","6",20,"cookie.pretzel","pretzel","cookie","or","or/noun","left","or",4390,"11/18/2015","11:22","F","35","English"
"198","6",21,"horse.cow","cow","horse","and","or/noun","left","or",1091,"11/18/2015","11:22","F","35","English"
"199","6",22,"comb.toothbrush","comb","toothbrush","and","and/noun","left","and",1393,"11/18/2015","11:22","F","35","English"
"200","6",23,"carrot.strawberry","carrot","strawberry","and","and/noun","left","and",1194,"11/18/2015","11:22","F","35","English"
"201","6",24,"apple.pear","pear","apple","and","and/noun","left","and",1788,"11/18/2015","11:22","F","35","English"
"202","6",25,"bird.monkey","monkey","bird","and","and/or","left","and",3010,"11/18/2015","11:22","F","35","English"
"203","6",26,"banana.orange","orange","banana","or","and/or","left","and",4254,"11/18/2015","11:22","F","35","English"
"204","6",27,"scissors.paintbrush","paintbrush","scissors","or","and/noun","left","and",35219,"11/18/2015","11:23","F","35","English"
"205","6",28,"chicken.duck","chicken","duck","noun","and/or","right","or",6396,"11/18/2015","11:23","F","35","English"
"206","6",29,"dog.cat","dog","cat","or","and/noun","left","and",1141,"11/18/2015","11:23","F","35","English"
"207","6",30,"plate.fork","fork","plate","or","and/noun","left","and",1377,"11/18/2015","11:23","F","35","English"
"208","6",31,"hat.mitten","mitten","hat","and","and/noun","left","and",2029,"11/18/2015","11:23","F","35","English"
"209","6",32,"frog.turtle","frog","turtle","and","or/noun","left","or",1755,"11/18/2015","11:23","F","35","English"
"210","6",33,"house.barn","barn","house","or","or/noun","left","or",1745,"11/18/2015","11:23","F","35","English"
"211","6",34,"shorts.shirt","shirt","shorts","and","and/or","left","and",10659,"11/18/2015","11:23","F","35","English"
"212","6",35,"giraffe.elephant","elephant","giraffe","noun","and/noun","right","noun",2048,"11/18/2015","11:24","F","35","English"
"213","6",36,"plane.boat","boat","plane","or","or/noun","left","or",1901,"11/18/2015","11:24","F","35","English"
"214","7",1,"dog.cat","dog","cat","and","and/or","left","and",10422,"11/18/2015","13:22","M","35","English"
"215","7",2,"bird.monkey","monkey","bird","or","or/noun","left","or",7154,"11/18/2015","13:22","M","35","English"
"216","7",3,"hat.mitten","hat","mitten","and","or/noun","left","or",3986,"11/18/2015","13:22","M","35","English"
"217","7",4,"bear.sheep","sheep","bear","noun","and/or","right","or",7437,"11/18/2015","13:22","M","35","English"
"218","7",5,"comb.toothbrush","comb","toothbrush","and","or/noun","left","or",4737,"11/18/2015","13:23","M","35","English"
"219","7",6,"butterfly.bee","bee","butterfly","or","and/noun","left","and",8766,"11/18/2015","13:23","M","35","English"
"220","7",7,"cupcake.popsicle","popsicle","cupcake","or","and/noun","left","and",3286,"11/18/2015","13:23","M","35","English"
"221","7",8,"chicken.duck","chicken","duck","and","and/noun","left","and",3178,"11/18/2015","13:23","M","35","English"
"222","7",9,"pig.goat","goat","pig","or","or/noun","left","or",3457,"11/18/2015","13:23","M","35","English"
"223","7",10,"plane.boat","plane","boat","and","and/or","left","and",14672,"11/18/2015","13:23","M","35","English"
"224","7",11,"cup.spoon","spoon","cup","noun","or/noun","right","noun",3222,"11/18/2015","13:23","M","35","English"
"225","7",12,"shorts.shirt","shirt","shorts","or","and/or","right","or",7471,"11/18/2015","13:23","M","35","English"
"226","7",13,"banana.orange","orange","banana","or","or/noun","left","or",1990,"11/18/2015","13:23","M","35","English"
"227","7",14,"purse.watch","purse","watch","noun","and/noun","right","noun",2230,"11/18/2015","13:23","M","35","English"
"228","7",15,"necklace.dress","dress","necklace","and","or/noun","left","or",2080,"11/18/2015","13:24","M","35","English"
"229","7",16,"car.bus","car","bus","or","and/or","right","or",2398,"11/18/2015","13:24","M","35","English"
"230","7",17,"apple.pear","pear","apple","noun","and/or","right","or",2927,"11/18/2015","13:24","M","35","English"
"231","7",18,"train.firetruck","train","firetruck","and","and/noun","left","and",5562,"11/18/2015","13:24","M","35","English"
"232","7",19,"horse.cow","horse","cow","or","or/noun","left","or",2990,"11/18/2015","13:24","M","35","English"
"233","7",20,"cookie.pretzel","cookie","pretzel","noun","and/or","right","or",2675,"11/18/2015","13:24","M","35","English"
"234","7",21,"frog.turtle","turtle","frog","noun","and/noun","right","noun",2378,"11/18/2015","13:24","M","35","English"
"235","7",22,"tiger.lion","tiger","lion","noun","or/noun","right","noun",1996,"11/18/2015","13:24","M","35","English"
"236","7",23,"penguin.fish","penguin","fish","or","and/or","right","or",4118,"11/18/2015","13:24","M","35","English"
"237","7",24,"plate.fork","plate","fork","noun","and/noun","right","noun",1838,"11/18/2015","13:24","M","35","English"
"238","7",25,"clock.lamp","lamp","clock","or","and/noun","left","and",6689,"11/18/2015","13:24","M","35","English"
"239","7",26,"tree.flower","tree","flower","or","and/noun","left","and",3654,"11/18/2015","13:24","M","35","English"
"240","7",27,"table.chair","table","chair","noun","or/noun","right","noun",3024,"11/18/2015","13:24","M","35","English"
"241","7",28,"house.barn","barn","house","noun","and/or","right","or",3927,"11/18/2015","13:25","M","35","English"
"242","7",29,"scissors.paintbrush","scissors","paintbrush","and","and/or","left","and",3353,"11/18/2015","13:25","M","35","English"
"243","7",30,"carrot.strawberry","strawberry","carrot","and","or/noun","left","or",3047,"11/18/2015","13:25","M","35","English"
"244","7",31,"pencil.crayon","crayon","pencil","or","and/or","right","or",2959,"11/18/2015","13:25","M","35","English"
"245","7",32,"sock.shoe","shoe","sock","and","and/or","left","and",2881,"11/18/2015","13:25","M","35","English"
"246","7",33,"drum.guitar","drum","guitar","noun","and/noun","right","noun",1494,"11/18/2015","13:25","M","35","English"
"247","7",34,"cake.donut","donut","cake","and","and/noun","left","and",2071,"11/18/2015","13:25","M","35","English"
"248","7",35,"present.party_hat","party_hat","present","and","and/noun","left","and",2294,"11/18/2015","13:25","M","35","English"
"249","7",36,"giraffe.elephant","elephant","giraffe","noun","or/noun","right","noun",4855,"11/18/2015","13:25","M","35","English"
"250","8",1,"car.bus","car","bus","noun","and/or","right","or",7070,"11/18/2015","12:19","M","25","English"
"251","8",2,"butterfly.bee","bee","butterfly","noun","and/or","right","or",2482,"11/18/2015","12:20","M","25","English"
"252","8",3,"hat.mitten","mitten","hat","noun","and/or","right","or",1831,"11/18/2015","12:20","M","25","English"
"253","8",4,"bird.monkey","bird","monkey","and","and/or","left","and",1614,"11/18/2015","12:20","M","25","English"
"254","8",5,"cup.spoon","cup","spoon","and","or/noun","left","or",2551,"11/18/2015","12:20","M","25","English"
"255","8",6,"purse.watch","purse","watch","noun","or/noun","right","noun",17728,"11/18/2015","12:20","M","25","English"
"256","8",7,"pencil.crayon","crayon","pencil","and","or/noun","left","or",1836,"11/18/2015","12:20","M","25","English"
"257","8",8,"tree.flower","flower","tree","noun","or/noun","right","noun",1318,"11/18/2015","12:20","M","25","English"
"258","8",9,"giraffe.elephant","giraffe","elephant","or","or/noun","left","or",1352,"11/18/2015","12:20","M","25","English"
"259","8",10,"tiger.lion","tiger","lion","and","or/noun","left","or",1829,"11/18/2015","12:20","M","25","English"
"260","8",11,"scissors.paintbrush","paintbrush","scissors","noun","and/noun","right","noun",1170,"11/18/2015","12:20","M","25","English"
"261","8",12,"table.chair","table","chair","or","or/noun","left","or",1605,"11/18/2015","12:20","M","25","English"
"262","8",13,"dog.cat","dog","cat","and","and/or","left","and",1770,"11/18/2015","12:20","M","25","English"
"263","8",14,"necklace.dress","necklace","dress","or","and/noun","left","and",2149,"11/18/2015","12:20","M","25","English"
"264","8",15,"plane.boat","boat","plane","or","and/noun","left","and",1339,"11/18/2015","12:20","M","25","English"
"265","8",16,"frog.turtle","turtle","frog","and","and/noun","left","and",1182,"11/18/2015","12:20","M","25","English"
"266","8",17,"carrot.strawberry","carrot","strawberry","noun","and/noun","right","noun",1456,"11/18/2015","12:20","M","25","English"
"267","8",18,"apple.pear","pear","apple","or","and/noun","left","and",1414,"11/18/2015","12:20","M","25","English"
"268","8",19,"cake.donut","cake","donut","or","and/or","left","and",2359,"11/18/2015","12:21","M","25","English"
"269","8",20,"present.party_hat","party_hat","present","and","and/noun","left","and",1640,"11/18/2015","12:21","M","25","English"
"270","8",21,"train.firetruck","train","firetruck","and","and/or","left","and",2890,"11/18/2015","12:21","M","25","English"
"271","8",22,"cookie.pretzel","cookie","pretzel","or","or/noun","left","or",2000,"11/18/2015","12:21","M","25","English"
"272","8",23,"chicken.duck","duck","chicken","or","and/or","right","or",12027,"11/18/2015","12:21","M","25","English"
"273","8",24,"penguin.fish","fish","penguin","and","and/or","left","and",1593,"11/18/2015","12:21","M","25","English"
"274","8",25,"comb.toothbrush","toothbrush","comb","noun","or/noun","right","noun",1686,"11/18/2015","12:21","M","25","English"
"275","8",26,"drum.guitar","guitar","drum","and","or/noun","left","or",1882,"11/18/2015","12:21","M","25","English"
"276","8",27,"banana.orange","banana","orange","or","and/noun","left","and",1610,"11/18/2015","12:21","M","25","English"
"277","8",28,"plate.fork","fork","plate","noun","or/noun","right","noun",1405,"11/18/2015","12:21","M","25","English"
"278","8",29,"shorts.shirt","shorts","shirt","and","and/noun","left","and",1671,"11/18/2015","12:21","M","25","English"
"279","8",30,"bear.sheep","bear","sheep","noun","and/noun","right","noun",1454,"11/18/2015","12:21","M","25","English"
"280","8",31,"house.barn","barn","house","or","or/noun","left","or",1337,"11/18/2015","12:21","M","25","English"
"281","8",32,"clock.lamp","lamp","clock","and","and/noun","left","and",1764,"11/18/2015","12:21","M","25","English"
"282","8",33,"sock.shoe","sock","shoe","or","and/or","right","or",2054,"11/18/2015","12:21","M","25","English"
"283","8",34,"cupcake.popsicle","cupcake","popsicle","noun","and/or","right","or",4682,"11/18/2015","12:21","M","25","English"
"284","8",35,"horse.cow","horse","cow","noun","and/noun","right","noun",1580,"11/18/2015","12:22","M","25","English"
"285","8",36,"pig.goat","pig","goat","or","and/or","right","or",1617,"11/18/2015","12:22","M","25","English"
"286","9",1,"pencil.crayon","pencil","crayon","noun","and/or","right","or",5442,"11/18/2015","8:15","F","35","English"
"287","9",2,"butterfly.bee","bee","butterfly","or","and/or","right","or",5953,"11/18/2015","8:15","F","35","English"
"288","9",3,"plane.boat","plane","boat","and","and/noun","left","and",2368,"11/18/2015","8:16","F","35","English"
"289","9",4,"apple.pear","pear","apple","or","or/noun","left","or",2934,"11/18/2015","8:16","F","35","English"
"290","9",5,"comb.toothbrush","comb","toothbrush","or","and/noun","left","and",2354,"11/18/2015","8:16","F","35","English"
"291","9",6,"tree.flower","tree","flower","and","and/noun","left","and",2813,"11/18/2015","8:16","F","35","English"
"292","9",7,"cupcake.popsicle","popsicle","cupcake","and","or/noun","left","or",1841,"11/18/2015","8:16","F","35","English"
"293","9",8,"cookie.pretzel","pretzel","cookie","and","and/or","right","or",1645,"11/18/2015","8:16","F","35","English"
"294","9",9,"purse.watch","watch","purse","noun","and/or","right","or",2562,"11/18/2015","8:16","F","35","English"
"295","9",10,"present.party_hat","party_hat","present","or","and/or","right","or",2138,"11/18/2015","8:16","F","35","English"
"296","9",11,"giraffe.elephant","giraffe","elephant","or","and/or","right","or",1538,"11/18/2015","8:16","F","35","English"
"297","9",12,"banana.orange","orange","banana","and","or/noun","left","or",3030,"11/18/2015","8:16","F","35","English"
"298","9",13,"house.barn","house","barn","or","and/noun","left","and",4642,"11/18/2015","8:16","F","35","English"
"299","9",14,"horse.cow","horse","cow","and","and/noun","left","and",2894,"11/18/2015","8:16","F","35","English"
"300","9",15,"train.firetruck","train","firetruck","noun","and/noun","right","noun",2015,"11/18/2015","8:16","F","35","English"
"301","9",16,"dog.cat","cat","dog","noun","and/or","right","or",2393,"11/18/2015","8:16","F","35","English"
"302","9",17,"chicken.duck","duck","chicken","and","and/or","left","and",2262,"11/18/2015","8:16","F","35","English"
"303","9",18,"table.chair","table","chair","and","and/noun","left","and",1798,"11/18/2015","8:16","F","35","English"
"304","9",19,"frog.turtle","turtle","frog","or","or/noun","left","or",1348,"11/18/2015","8:16","F","35","English"
"305","9",20,"car.bus","car","bus","or","or/noun","left","or",1660,"11/18/2015","8:16","F","35","English"
"306","9",21,"scissors.paintbrush","paintbrush","scissors","noun","or/noun","right","noun",1730,"11/18/2015","8:17","F","35","English"
"307","9",22,"drum.guitar","drum","guitar","noun","or/noun","right","noun",1264,"11/18/2015","8:17","F","35","English"
"308","9",23,"pig.goat","goat","pig","noun","or/noun","right","noun",1106,"11/18/2015","8:17","F","35","English"
"309","9",24,"shorts.shirt","shirt","shorts","or","and/noun","left","and",1522,"11/18/2015","8:17","F","35","English"
"310","9",25,"penguin.fish","penguin","fish","or","or/noun","left","or",1712,"11/18/2015","8:17","F","35","English"
"311","9",26,"bird.monkey","bird","monkey","noun","and/or","right","or",1609,"11/18/2015","8:17","F","35","English"
"312","9",27,"cup.spoon","cup","spoon","and","and/or","left","and",2004,"11/18/2015","8:17","F","35","English"
"313","9",28,"sock.shoe","shoe","sock","noun","and/noun","right","noun",1272,"11/18/2015","8:17","F","35","English"
"314","9",29,"necklace.dress","dress","necklace","and","or/noun","left","or",1840,"11/18/2015","8:17","F","35","English"
"315","9",30,"clock.lamp","lamp","clock","noun","and/noun","right","noun",1417,"11/18/2015","8:17","F","35","English"
"316","9",31,"cake.donut","donut","cake","noun","and/noun","right","noun",1098,"11/18/2015","8:17","F","35","English"
"317","9",32,"plate.fork","fork","plate","and","and/or","left","and",1902,"11/18/2015","8:17","F","35","English"
"318","9",33,"hat.mitten","hat","mitten","or","and/or","right","or",1444,"11/18/2015","8:17","F","35","English"
"319","9",34,"bear.sheep","bear","sheep","or","and/noun","left","and",1741,"11/18/2015","8:17","F","35","English"
"320","9",35,"tiger.lion","tiger","lion","noun","or/noun","right","noun",1176,"11/18/2015","8:17","F","35","English"
"321","9",36,"carrot.strawberry","strawberry","carrot","and","or/noun","left","or",1378,"11/18/2015","8:17","F","35","English"
"322","10",1,"penguin.fish","fish","penguin","and","and/noun","left","and",6185,"11/18/2015","13:26","M","35","English"
"323","10",2,"house.barn","house","barn","noun","and/or","left","and",6994,"11/18/2015","13:26","M","35","English"
"324","10",3,"apple.pear","pear","apple","and","and/or","left","and",2522,"11/18/2015","13:26","M","35","English"
"325","10",4,"present.party_hat","present","party_hat","noun","and/or","left","and",2408,"11/18/2015","13:26","M","35","English"
"326","10",5,"train.firetruck","train","firetruck","noun","and/noun","right","noun",3925,"11/18/2015","13:26","M","35","English"
"327","10",6,"tree.flower","tree","flower","noun","and/noun","right","noun",3720,"11/18/2015","13:26","M","35","English"
"328","10",7,"cupcake.popsicle","popsicle","cupcake","and","and/or","left","and",2220,"11/18/2015","13:26","M","35","English"
"329","10",8,"sock.shoe","shoe","sock","and","and/or","left","and",2207,"11/18/2015","13:26","M","35","English"
"330","10",9,"pig.goat","pig","goat","and","or/noun","left","or",2819,"11/18/2015","13:26","M","35","English"
"331","10",10,"frog.turtle","frog","turtle","noun","and/noun","right","noun",2099,"11/18/2015","13:26","M","35","English"
"332","10",11,"plane.boat","plane","boat","or","and/or","right","or",2345,"11/18/2015","13:26","M","35","English"
"333","10",12,"table.chair","table","chair","or","and/noun","right","noun",6618,"11/18/2015","13:27","M","35","English"
"334","10",13,"dog.cat","cat","dog","noun","or/noun","right","noun",1705,"11/18/2015","13:27","M","35","English"
"335","10",14,"cake.donut","donut","cake","and","and/noun","left","and",1848,"11/18/2015","13:27","M","35","English"
"336","10",15,"banana.orange","orange","banana","or","and/noun","right","noun",3088,"11/18/2015","13:27","M","35","English"
"337","10",16,"plate.fork","plate","fork","or","or/noun","left","or",2541,"11/18/2015","13:27","M","35","English"
"338","10",17,"carrot.strawberry","carrot","strawberry","and","or/noun","left","or",2157,"11/18/2015","13:27","M","35","English"
"339","10",18,"chicken.duck","chicken","duck","or","and/or","right","or",1789,"11/18/2015","13:27","M","35","English"
"340","10",19,"shorts.shirt","shirt","shorts","and","and/or","left","and",2111,"11/18/2015","13:27","M","35","English"
"341","10",20,"bird.monkey","bird","monkey","or","and/noun","right","noun",3403,"11/18/2015","13:27","M","35","English"
"342","10",21,"necklace.dress","dress","necklace","or","and/noun","right","noun",2360,"11/18/2015","13:27","M","35","English"
"343","10",22,"horse.cow","cow","horse","and","and/noun","left","and",2496,"11/18/2015","13:27","M","35","English"
"344","10",23,"drum.guitar","drum","guitar","or","and/or","right","or",1830,"11/18/2015","13:27","M","35","English"
"345","10",24,"scissors.paintbrush","paintbrush","scissors","or","or/noun","left","or",2714,"11/18/2015","13:27","M","35","English"
"346","10",25,"car.bus","car","bus","noun","or/noun","right","noun",2553,"11/18/2015","13:27","M","35","English"
"347","10",26,"purse.watch","watch","purse","and","or/noun","left","or",2741,"11/18/2015","13:27","M","35","English"
"348","10",27,"giraffe.elephant","giraffe","elephant","and","and/noun","left","and",2464,"11/18/2015","13:27","M","35","English"
"349","10",28,"butterfly.bee","bee","butterfly","noun","and/noun","right","noun",3172,"11/18/2015","13:28","M","35","English"
"350","10",29,"cookie.pretzel","pretzel","cookie","or","or/noun","left","or",2987,"11/18/2015","13:28","M","35","English"
"351","10",30,"bear.sheep","sheep","bear","noun","and/or","left","and",4120,"11/18/2015","13:28","M","35","English"
"352","10",31,"clock.lamp","lamp","clock","or","or/noun","left","or",2248,"11/18/2015","13:28","M","35","English"
"353","10",32,"hat.mitten","mitten","hat","noun","or/noun","right","noun",2566,"11/18/2015","13:28","M","35","English"
"354","10",33,"cup.spoon","cup","spoon","noun","or/noun","right","noun",2105,"11/18/2015","13:28","M","35","English"
"355","10",34,"pencil.crayon","crayon","pencil","and","or/noun","left","or",2599,"11/18/2015","13:28","M","35","English"
"356","10",35,"tiger.lion","tiger","lion","or","and/or","right","or",2277,"11/18/2015","13:28","M","35","English"
"357","10",36,"comb.toothbrush","comb","toothbrush","noun","and/or","left","and",3260,"11/18/2015","13:28","M","35","English"
"358","11",1,"frog.turtle","turtle","frog","noun","and/or","left","and",2573,"11/18/2015","13:23","M","25","English"
"359","11",2,"tiger.lion","tiger","lion","and","and/noun","left","and",2085,"11/18/2015","13:23","M","25","English"
"360","11",3,"bird.monkey","bird","monkey","or","and/noun","left","and",1524,"11/18/2015","13:23","M","25","English"
"361","11",4,"house.barn","house","barn","and","or/noun","left","or",2039,"11/18/2015","13:23","M","25","English"
"362","11",5,"cake.donut","cake","donut","or","and/or","right","or",2451,"11/18/2015","13:23","M","25","English"
"363","11",6,"shorts.shirt","shorts","shirt","or","or/noun","left","or",2779,"11/18/2015","13:23","M","25","English"
"364","11",7,"scissors.paintbrush","scissors","paintbrush","noun","and/or","left","and",4947,"11/18/2015","13:23","M","25","English"
"365","11",8,"comb.toothbrush","comb","toothbrush","noun","and/noun","right","noun",63913,"11/18/2015","13:24","M","25","English"
"366","11",9,"cookie.pretzel","cookie","pretzel","or","or/noun","left","or",2108,"11/18/2015","13:24","M","25","English"
"367","11",10,"carrot.strawberry","strawberry","carrot","and","and/noun","left","and",1701,"11/18/2015","13:24","M","25","English"
"368","11",11,"train.firetruck","train","firetruck","or","and/noun","right","noun",4896,"11/18/2015","13:24","M","25","English"
"369","11",12,"cup.spoon","spoon","cup","noun","and/noun","right","noun",91381,"11/18/2015","13:26","M","25","English"
"370","11",13,"dog.cat","dog","cat","and","and/noun","left","and",8838,"11/18/2015","13:26","M","25","English"
"371","11",14,"table.chair","chair","table","noun","or/noun","left","or",987,"11/18/2015","13:26","M","25","English"
"372","11",15,"penguin.fish","fish","penguin","or","or/noun","right","noun",315,"11/18/2015","13:26","M","25","English"
"373","11",16,"hat.mitten","mitten","hat","noun","and/noun","left","and",82,"11/18/2015","13:26","M","25","English"
"374","11",17,"purse.watch","purse","watch","and","and/noun","right","noun",264,"11/18/2015","13:26","M","25","English"
"375","11",18,"plane.boat","boat","plane","or","and/or","right","or",1846,"11/18/2015","13:26","M","25","English"
"376","11",19,"banana.orange","banana","orange","or","and/noun","right","noun",1664,"11/18/2015","13:26","M","25","English"
"377","11",20,"giraffe.elephant","elephant","giraffe","or","or/noun","left","or",1467,"11/18/2015","13:26","M","25","English"
"378","11",21,"drum.guitar","guitar","drum","noun","and/noun","right","noun",1155,"11/18/2015","13:26","M","25","English"
"379","11",22,"apple.pear","apple","pear","and","or/noun","left","or",1645,"11/18/2015","13:26","M","25","English"
"380","11",23,"necklace.dress","dress","necklace","and","and/or","left","and",2842,"11/18/2015","13:27","M","25","English"
"381","11",24,"chicken.duck","chicken","duck","noun","or/noun","right","noun",2558,"11/18/2015","13:27","M","25","English"
"382","11",25,"butterfly.bee","butterfly","bee","and","or/noun","left","or",1271,"11/18/2015","13:27","M","25","English"
"383","11",26,"sock.shoe","sock","shoe","noun","and/or","right","or",1706,"11/18/2015","13:27","M","25","English"
"384","11",27,"present.party_hat","party_hat","present","or","and/or","right","or",563,"11/18/2015","13:27","M","25","English"
"385","11",28,"clock.lamp","clock","lamp","or","and/or","left","and",317,"11/18/2015","13:27","M","25","English"
"386","11",29,"car.bus","bus","car","noun","or/noun","right","noun",91,"11/18/2015","13:27","M","25","English"
"387","11",30,"pencil.crayon","crayon","pencil","and","or/noun","right","noun",93,"11/18/2015","13:27","M","25","English"
"388","11",31,"pig.goat","goat","pig","and","and/or","right","or",223,"11/18/2015","13:27","M","25","English"
"389","11",32,"tree.flower","flower","tree","noun","and/or","left","and",362,"11/18/2015","13:27","M","25","English"
"390","11",33,"horse.cow","horse","cow","and","and/or","right","or",138,"11/18/2015","13:27","M","25","English"
"391","11",34,"bear.sheep","sheep","bear","or","and/noun","right","noun",290,"11/18/2015","13:27","M","25","English"
"392","11",35,"cupcake.popsicle","cupcake","popsicle","and","and/or","left","and",220,"11/18/2015","13:27","M","25","English"
"393","11",36,"plate.fork","fork","plate","noun","or/noun","right","noun",113,"11/18/2015","13:27","M","25","English"
"394","12",1,"scissors.paintbrush","scissors","paintbrush","and","and/or","left","and",10997,"11/18/2015","10:48","F","35","English"
"395","12",2,"necklace.dress","dress","necklace","or","and/noun","right","noun",11651,"11/18/2015","10:48","F","35","English"
"396","12",3,"present.party_hat","party_hat","present","and","and/or","left","and",7480,"11/18/2015","10:48","F","35","English"
"397","12",4,"cookie.pretzel","cookie","pretzel","or","or/noun","left","or",7339,"11/18/2015","10:48","F","35","English"
"398","12",5,"pig.goat","goat","pig","or","or/noun","left","or",3350,"11/18/2015","10:48","F","35","English"
"399","12",6,"frog.turtle","turtle","frog","noun","and/noun","right","noun",4510,"11/18/2015","10:48","F","35","English"
"400","12",7,"purse.watch","watch","purse","and","and/or","left","and",3942,"11/18/2015","10:49","F","35","English"
"401","12",8,"table.chair","table","chair","or","and/or","right","or",3778,"11/18/2015","10:49","F","35","English"
"402","12",9,"clock.lamp","lamp","clock","and","and/or","left","and",3500,"11/18/2015","10:49","F","35","English"
"403","12",10,"plate.fork","plate","fork","and","and/noun","left","and",3599,"11/18/2015","10:49","F","35","English"
"404","12",11,"drum.guitar","drum","guitar","noun","or/noun","right","noun",2941,"11/18/2015","10:49","F","35","English"
"405","12",12,"comb.toothbrush","comb","toothbrush","noun","and/noun","right","noun",2420,"11/18/2015","10:49","F","35","English"
"406","12",13,"car.bus","bus","car","and","or/noun","left","or",3711,"11/18/2015","10:49","F","35","English"
"407","12",14,"cake.donut","cake","donut","noun","and/or","left","and",4823,"11/18/2015","10:49","F","35","English"
"408","12",15,"apple.pear","pear","apple","noun","and/or","left","and",2518,"11/18/2015","10:49","F","35","English"
"409","12",16,"bear.sheep","bear","sheep","and","or/noun","left","or",2851,"11/18/2015","10:49","F","35","English"
"410","12",17,"dog.cat","cat","dog","noun","and/noun","right","noun",3069,"11/18/2015","10:49","F","35","English"
"411","12",18,"banana.orange","banana","orange","or","and/or","right","or",3374,"11/18/2015","10:49","F","35","English"
"412","12",19,"sock.shoe","shoe","sock","or","and/or","right","or",2659,"11/18/2015","10:49","F","35","English"
"413","12",20,"horse.cow","horse","cow","noun","and/or","left","and",3070,"11/18/2015","10:49","F","35","English"
"414","12",21,"plane.boat","boat","plane","noun","and/noun","right","noun",2458,"11/18/2015","10:50","F","35","English"
"415","12",22,"shorts.shirt","shirt","shorts","and","or/noun","left","or",3024,"11/18/2015","10:50","F","35","English"
"416","12",23,"hat.mitten","mitten","hat","noun","or/noun","right","noun",2390,"11/18/2015","10:50","F","35","English"
"417","12",24,"giraffe.elephant","giraffe","elephant","noun","and/or","left","and",2119,"11/18/2015","10:50","F","35","English"
"418","12",25,"chicken.duck","duck","chicken","or","and/noun","left","and",2260,"11/18/2015","10:50","F","35","English"
"419","12",26,"cupcake.popsicle","cupcake","popsicle","and","and/noun","left","and",3876,"11/18/2015","10:50","F","35","English"
"420","12",27,"pencil.crayon","crayon","pencil","or","and/noun","right","noun",2954,"11/18/2015","10:50","F","35","English"
"421","12",28,"house.barn","barn","house","or","and/noun","right","noun",3740,"11/18/2015","10:50","F","35","English"
"422","12",29,"tiger.lion","tiger","lion","and","or/noun","left","or",2783,"11/18/2015","10:50","F","35","English"
"423","12",30,"penguin.fish","penguin","fish","or","or/noun","left","or",3130,"11/18/2015","10:50","F","35","English"
"424","12",31,"cup.spoon","cup","spoon","and","and/noun","left","and",1956,"11/18/2015","10:50","F","35","English"
"425","12",32,"train.firetruck","firetruck","train","and","and/noun","left","and",2162,"11/18/2015","10:50","F","35","English"
"426","12",33,"carrot.strawberry","carrot","strawberry","noun","or/noun","right","noun",1937,"11/18/2015","10:50","F","35","English"
"427","12",34,"butterfly.bee","bee","butterfly","noun","or/noun","right","noun",1722,"11/18/2015","10:50","F","35","English"
"428","12",35,"bird.monkey","bird","monkey","or","or/noun","left","or",3087,"11/18/2015","10:50","F","35","English"
"429","12",36,"tree.flower","flower","tree","or","and/or","right","or",2686,"11/18/2015","10:50","F","35","English"
"430","13",1,"cookie.pretzel","cookie","pretzel","and","or/noun","left","or",17764,"11/18/2015","13:26","M","55","English"
"431","13",2,"cake.donut","donut","cake","and","or/noun","left","or",7122,"11/18/2015","13:26","M","55","English"
"432","13",3,"sock.shoe","shoe","sock","and","and/or","right","or",32125,"11/18/2015","13:26","M","55","English"
"433","13",4,"scissors.paintbrush","scissors","paintbrush","or","or/noun","right","noun",43430,"11/18/2015","13:27","M","55","English"
"434","13",5,"plate.fork","plate","fork","or","and/noun","right","noun",7655,"11/18/2015","13:27","M","55","English"
"435","13",6,"drum.guitar","guitar","drum","or","and/or","right","or",6686,"11/18/2015","13:27","M","55","English"
"436","13",7,"penguin.fish","fish","penguin","and","and/noun","left","and",4648,"11/18/2015","13:28","M","55","English"
"437","13",8,"pencil.crayon","crayon","pencil","noun","and/noun","right","noun",4646,"11/18/2015","13:28","M","55","English"
"438","13",9,"table.chair","table","chair","or","and/noun","right","noun",4173,"11/18/2015","13:28","M","55","English"
"439","13",10,"frog.turtle","frog","turtle","noun","and/noun","right","noun",5159,"11/18/2015","13:28","M","55","English"
"440","13",11,"chicken.duck","chicken","duck","and","or/noun","left","or",5003,"11/18/2015","13:28","M","55","English"
"441","13",12,"pig.goat","pig","goat","or","and/or","right","or",7649,"11/18/2015","13:28","M","55","English"
"442","13",13,"horse.cow","horse","cow","and","and/noun","left","and",3589,"11/18/2015","13:28","M","55","English"
"443","13",14,"purse.watch","watch","purse","noun","and/or","right","or",5946,"11/18/2015","13:28","M","55","English"
"444","13",15,"house.barn","barn","house","noun","and/or","right","or",7006,"11/18/2015","13:28","M","55","English"
"445","13",16,"necklace.dress","dress","necklace","noun","and/or","right","or",9008,"11/18/2015","13:29","M","55","English"
"446","13",17,"bird.monkey","bird","monkey","and","or/noun","left","or",7793,"11/18/2015","13:29","M","55","English"
"447","13",18,"dog.cat","dog","cat","or","or/noun","right","noun",13517,"11/18/2015","13:29","M","55","English"
"448","13",19,"present.party_hat","present","party_hat","noun","and/or","right","or",6515,"11/18/2015","13:29","M","55","English"
"449","13",20,"comb.toothbrush","toothbrush","comb","noun","or/noun","right","noun",11081,"11/18/2015","13:29","M","55","English"
"450","13",21,"butterfly.bee","bee","butterfly","noun","and/noun","right","noun",4534,"11/18/2015","13:29","M","55","English"
"451","13",22,"cupcake.popsicle","cupcake","popsicle","or","and/or","right","or",14157,"11/18/2015","13:30","M","55","English"
"452","13",23,"clock.lamp","lamp","clock","and","and/or","left","and",14435,"11/18/2015","13:30","M","55","English"
"453","13",24,"cup.spoon","spoon","cup","and","and/noun","left","and",7096,"11/18/2015","13:30","M","55","English"
"454","13",25,"bear.sheep","sheep","bear","or","or/noun","left","or",8562,"11/18/2015","13:30","M","55","English"
"455","13",26,"banana.orange","banana","orange","or","or/noun","left","or",4778,"11/18/2015","13:30","M","55","English"
"456","13",27,"hat.mitten","mitten","hat","and","and/noun","left","and",6403,"11/18/2015","13:30","M","55","English"
"457","13",28,"tiger.lion","lion","tiger","or","and/noun","right","noun",10865,"11/18/2015","13:31","M","55","English"
"458","13",29,"train.firetruck","firetruck","train","noun","or/noun","right","noun",6858,"11/18/2015","13:31","M","55","English"
"459","13",30,"car.bus","bus","car","and","and/or","left","and",4666,"11/18/2015","13:31","M","55","English"
"460","13",31,"shorts.shirt","shirt","shorts","and","and/or","left","and",6423,"11/18/2015","13:31","M","55","English"
"461","13",32,"giraffe.elephant","giraffe","elephant","noun","or/noun","right","noun",7360,"11/18/2015","13:31","M","55","English"
"462","13",33,"carrot.strawberry","carrot","strawberry","noun","or/noun","right","noun",5296,"11/18/2015","13:31","M","55","English"
"463","13",34,"apple.pear","apple","pear","or","and/noun","right","noun",9816,"11/18/2015","13:31","M","55","English"
"464","13",35,"tree.flower","flower","tree","noun","and/noun","right","noun",11313,"11/18/2015","13:32","M","55","English"
"465","13",36,"plane.boat","boat","plane","or","and/or","right","or",5439,"11/18/2015","13:32","M","55","English"
"466","14",1,"purse.watch","purse","watch","or","or/noun","right","noun",12346,"11/18/2015","13:18","M","45","English"
"467","14",2,"horse.cow","cow","horse","and","or/noun","left","or",5756,"11/18/2015","13:18","M","45","English"
"468","14",3,"apple.pear","pear","apple","and","or/noun","left","or",2072,"11/18/2015","13:18","M","45","English"
"469","14",4,"cookie.pretzel","pretzel","cookie","noun","and/noun","right","noun",2657,"11/18/2015","13:18","M","45","English"
"470","14",5,"hat.mitten","hat","mitten","noun","and/or","left","and",6890,"11/18/2015","13:18","M","45","English"
"471","14",6,"pig.goat","pig","goat","and","and/noun","left","and",4319,"11/18/2015","13:18","M","45","English"
"472","14",7,"sock.shoe","sock","shoe","or","and/noun","left","and",6875,"11/18/2015","13:18","M","45","English"
"473","14",8,"pencil.crayon","pencil","crayon","and","and/or","left","and",2422,"11/18/2015","13:18","M","45","English"
"474","14",9,"table.chair","table","chair","noun","and/noun","right","noun",3270,"11/18/2015","13:18","M","45","English"
"475","14",10,"banana.orange","banana","orange","or","or/noun","left","or",4088,"11/18/2015","13:18","M","45","English"
"476","14",11,"butterfly.bee","bee","butterfly","or","or/noun","left","or",1996,"11/18/2015","13:18","M","45","English"
"477","14",12,"cup.spoon","cup","spoon","and","and/noun","left","and",3167,"11/18/2015","13:18","M","45","English"
"478","14",13,"tree.flower","flower","tree","noun","and/noun","right","noun",3878,"11/18/2015","13:19","M","45","English"
"479","14",14,"bird.monkey","bird","monkey","and","and/noun","left","and",4086,"11/18/2015","13:19","M","45","English"
"480","14",15,"plane.boat","boat","plane","and","and/noun","left","and",1917,"11/18/2015","13:19","M","45","English"
"481","14",16,"train.firetruck","train","firetruck","or","and/or","right","or",2969,"11/18/2015","13:19","M","45","English"
"482","14",17,"giraffe.elephant","elephant","giraffe","or","and/noun","left","and",7152,"11/18/2015","13:19","M","45","English"
"483","14",18,"drum.guitar","drum","guitar","or","or/noun","left","or",2790,"11/18/2015","13:19","M","45","English"
"484","14",19,"carrot.strawberry","strawberry","carrot","noun","or/noun","right","noun",2270,"11/18/2015","13:19","M","45","English"
"485","14",20,"dog.cat","dog","cat","or","and/noun","left","and",3575,"11/18/2015","13:19","M","45","English"
"486","14",21,"bear.sheep","bear","sheep","and","and/or","left","and",4423,"11/18/2015","13:19","M","45","English"
"487","14",22,"plate.fork","plate","fork","or","and/or","right","or",4407,"11/18/2015","13:19","M","45","English"
"488","14",23,"car.bus","car","bus","noun","or/noun","right","noun",2915,"11/18/2015","13:19","M","45","English"
"489","14",24,"necklace.dress","necklace","dress","and","and/or","left","and",2599,"11/18/2015","13:19","M","45","English"
"490","14",25,"cupcake.popsicle","cupcake","popsicle","noun","and/or","left","and",20586,"11/18/2015","13:20","M","45","English"
"491","14",26,"present.party_hat","present","party_hat","or","and/or","right","or",3557,"11/18/2015","13:20","M","45","English"
"492","14",27,"frog.turtle","frog","turtle","or","and/noun","left","and",4706,"11/18/2015","13:20","M","45","English"
"493","14",28,"chicken.duck","duck","chicken","and","and/or","left","and",2462,"11/18/2015","13:20","M","45","English"
"494","14",29,"penguin.fish","fish","penguin","noun","and/or","left","and",13510,"11/18/2015","13:20","M","45","English"
"495","14",30,"shorts.shirt","shorts","shirt","and","or/noun","left","or",2116,"11/18/2015","13:20","M","45","English"
"496","14",31,"tiger.lion","tiger","lion","or","and/or","right","or",2658,"11/18/2015","13:20","M","45","English"
"497","14",32,"clock.lamp","clock","lamp","noun","or/noun","right","noun",2408,"11/18/2015","13:20","M","45","English"
"498","14",33,"house.barn","house","barn","noun","and/or","left","and",11236,"11/18/2015","13:21","M","45","English"
"499","14",34,"comb.toothbrush","toothbrush","comb","and","or/noun","left","or",4900,"11/18/2015","13:21","M","45","English"
"500","14",35,"scissors.paintbrush","paintbrush","scissors","noun","or/noun","right","noun",3466,"11/18/2015","13:21","M","45","English"
"501","14",36,"cake.donut","cake","donut","noun","and/noun","right","noun",2276,"11/18/2015","13:21","M","45","English"
"502","15",1,"giraffe.elephant","elephant","giraffe","or","and/noun","right","noun",7430,"11/17/2015","23:34","M","25","English"
"503","15",2,"drum.guitar","drum","guitar","and","or/noun","left","or",2753,"11/17/2015","23:34","M","25","English"
"504","15",3,"horse.cow","horse","cow","and","and/or","left","and",5587,"11/17/2015","23:34","M","25","English"
"505","15",4,"plate.fork","fork","plate","noun","and/or","right","or",4391,"11/17/2015","23:34","M","25","English"
"506","15",5,"chicken.duck","duck","chicken","and","or/noun","left","or",3428,"11/17/2015","23:35","M","25","English"
"507","15",6,"pig.goat","pig","goat","and","and/or","left","and",3253,"11/17/2015","23:35","M","25","English"
"508","15",7,"hat.mitten","hat","mitten","and","and/noun","left","and",2901,"11/17/2015","23:35","M","25","English"
"509","15",8,"cupcake.popsicle","cupcake","popsicle","noun","and/or","right","or",2169,"11/17/2015","23:35","M","25","English"
"510","15",9,"cookie.pretzel","pretzel","cookie","or","and/noun","right","noun",2140,"11/17/2015","23:35","M","25","English"
"511","15",10,"cup.spoon","cup","spoon","noun","or/noun","right","noun",1758,"11/17/2015","23:35","M","25","English"
"512","15",11,"car.bus","bus","car","or","and/noun","right","noun",2283,"11/17/2015","23:35","M","25","English"
"513","15",12,"purse.watch","watch","purse","or","and/or","right","or",2417,"11/17/2015","23:35","M","25","English"
"514","15",13,"pencil.crayon","crayon","pencil","noun","and/noun","right","noun",2618,"11/17/2015","23:35","M","25","English"
"515","15",14,"bear.sheep","bear","sheep","or","and/or","right","or",2086,"11/17/2015","23:35","M","25","English"
"516","15",15,"carrot.strawberry","carrot","strawberry","noun","and/or","right","or",1823,"11/17/2015","23:35","M","25","English"
"517","15",16,"banana.orange","banana","orange","or","or/noun","right","noun",1655,"11/17/2015","23:35","M","25","English"
"518","15",17,"tiger.lion","tiger","lion","and","or/noun","left","or",3187,"11/17/2015","23:35","M","25","English"
"519","15",18,"comb.toothbrush","comb","toothbrush","noun","and/or","right","or",2332,"11/17/2015","23:35","M","25","English"
"520","15",19,"table.chair","chair","table","and","and/noun","left","and",1750,"11/17/2015","23:35","M","25","English"
"521","15",20,"frog.turtle","frog","turtle","or","and/or","right","or",2200,"11/17/2015","23:35","M","25","English"
"522","15",21,"penguin.fish","penguin","fish","and","or/noun","left","or",1573,"11/17/2015","23:35","M","25","English"
"523","15",22,"house.barn","house","barn","or","or/noun","right","noun",3842,"11/17/2015","23:35","M","25","English"
"524","15",23,"sock.shoe","shoe","sock","and","and/noun","left","and",1607,"11/17/2015","23:36","M","25","English"
"525","15",24,"clock.lamp","clock","lamp","and","and/noun","left","and",1869,"11/17/2015","23:36","M","25","English"
"526","15",25,"present.party_hat","party_hat","present","or","or/noun","right","noun",3075,"11/17/2015","23:36","M","25","English"
"527","15",26,"shorts.shirt","shorts","shirt","or","and/noun","right","noun",2228,"11/17/2015","23:36","M","25","English"
"528","15",27,"butterfly.bee","bee","butterfly","and","and/or","left","and",2676,"11/17/2015","23:36","M","25","English"
"529","15",28,"tree.flower","flower","tree","or","or/noun","right","noun",3128,"11/17/2015","23:36","M","25","English"
"530","15",29,"dog.cat","dog","cat","noun","or/noun","right","noun",1265,"11/17/2015","23:36","M","25","English"
"531","15",30,"cake.donut","donut","cake","noun","and/noun","right","noun",1117,"11/17/2015","23:36","M","25","English"
"532","15",31,"necklace.dress","dress","necklace","or","and/or","right","or",2527,"11/17/2015","23:36","M","25","English"
"533","15",32,"train.firetruck","train","firetruck","noun","and/noun","right","noun",1569,"11/17/2015","23:36","M","25","English"
"534","15",33,"apple.pear","pear","apple","noun","or/noun","right","noun",1246,"11/17/2015","23:36","M","25","English"
"535","15",34,"plane.boat","boat","plane","noun","and/noun","right","noun",11946,"11/17/2015","23:36","M","25","English"
"536","15",35,"bird.monkey","bird","monkey","and","and/or","left","and",3050,"11/17/2015","23:36","M","25","English"
"537","15",36,"scissors.paintbrush","scissors","paintbrush","noun","or/noun","right","noun",1496,"11/17/2015","23:36","M","25","English"
"538","16",1,"plane.boat","plane","boat","noun","or/noun","right","noun",1250,"11/18/2015","10:07","F","25","English"
"539","16",2,"train.firetruck","firetruck","train","or","or/noun","left","or",11465,"11/18/2015","10:07","F","25","English"
"540","16",3,"tree.flower","flower","tree","or","or/noun","left","or",97312,"11/18/2015","10:09","F","25","English"
"541","16",4,"penguin.fish","fish","penguin","or","and/noun","left","and",2368,"11/18/2015","10:09","F","25","English"
"542","16",5,"butterfly.bee","bee","butterfly","noun","or/noun","right","noun",51606,"11/18/2015","10:10","F","25","English"
"543","16",6,"clock.lamp","lamp","clock","and","and/noun","left","and",19085,"11/18/2015","10:10","F","25","English"
"544","16",7,"cookie.pretzel","cookie","pretzel","and","or/noun","left","or",7507,"11/18/2015","10:10","F","25","English"
"545","16",8,"scissors.paintbrush","paintbrush","scissors","noun","and/noun","right","noun",3844,"11/18/2015","10:10","F","25","English"
"546","16",9,"frog.turtle","turtle","frog","and","and/or","left","and",538631,"11/18/2015","10:19","F","25","English"
"547","16",10,"cupcake.popsicle","popsicle","cupcake","or","and/or","right","or",2884,"11/18/2015","10:19","F","25","English"
"548","16",11,"hat.mitten","mitten","hat","and","and/or","left","and",2133,"11/18/2015","10:19","F","25","English"
"549","16",12,"banana.orange","orange","banana","noun","and/or","right","or",24759,"11/18/2015","10:20","F","25","English"
"550","16",13,"horse.cow","cow","horse","noun","and/noun","right","noun",5284,"11/18/2015","10:20","F","25","English"
"551","16",14,"purse.watch","watch","purse","noun","or/noun","right","noun",2242,"11/18/2015","10:20","F","25","English"
"552","16",15,"plate.fork","fork","plate","noun","and/or","right","or",6426,"11/18/2015","10:20","F","25","English"
"553","16",16,"shorts.shirt","shorts","shirt","or","and/or","right","or",25847,"11/18/2015","10:20","F","25","English"
"554","16",17,"table.chair","chair","table","and","or/noun","left","or",1891,"11/18/2015","10:20","F","25","English"
"555","16",18,"bird.monkey","monkey","bird","or","and/noun","left","and",64247,"11/18/2015","10:22","F","25","English"
"556","16",19,"dog.cat","cat","dog","and","and/noun","left","and",67146,"11/18/2015","10:23","F","25","English"
"557","16",20,"present.party_hat","party_hat","present","and","and/noun","left","and",77021,"11/18/2015","10:24","F","25","English"
"558","16",21,"pig.goat","goat","pig","noun","and/noun","right","noun",18092,"11/18/2015","10:24","F","25","English"
"559","16",22,"carrot.strawberry","strawberry","carrot","and","and/or","left","and",1986,"11/18/2015","10:24","F","25","English"
"560","16",23,"car.bus","bus","car","and","or/noun","left","or",2867,"11/18/2015","10:24","F","25","English"
"561","16",24,"comb.toothbrush","toothbrush","comb","noun","and/or","left","and",1876,"11/18/2015","10:24","F","25","English"
"562","16",25,"house.barn","barn","house","or","and/noun","left","and",2789,"11/18/2015","10:25","F","25","English"
"563","16",26,"tiger.lion","tiger","lion","or","and/noun","left","and",1604,"11/18/2015","10:25","F","25","English"
"564","16",27,"cake.donut","donut","cake","noun","or/noun","left","or",1867,"11/18/2015","10:25","F","25","English"
"565","16",28,"bear.sheep","sheep","bear","noun","and/or","right","or",3983,"11/18/2015","10:25","F","25","English"
"566","16",29,"pencil.crayon","pencil","crayon","or","and/or","right","or",2109,"11/18/2015","10:25","F","25","English"
"567","16",30,"chicken.duck","chicken","duck","and","and/or","right","or",871,"11/18/2015","10:25","F","25","English"
"568","16",31,"cup.spoon","spoon","cup","and","and/noun","right","noun",1342,"11/18/2015","10:25","F","25","English"
"569","16",32,"drum.guitar","guitar","drum","or","or/noun","left","or",1692,"11/18/2015","10:25","F","25","English"
"570","16",33,"giraffe.elephant","giraffe","elephant","noun","and/noun","left","and",2030,"11/18/2015","10:25","F","25","English"
"571","16",34,"sock.shoe","sock","shoe","or","and/or","left","and",5184,"11/18/2015","10:25","F","25","English"
"572","16",35,"necklace.dress","necklace","dress","and","or/noun","left","or",3551,"11/18/2015","10:25","F","25","English"
"573","16",36,"apple.pear","apple","pear","or","or/noun","left","or",4614,"11/18/2015","10:25","F","25","English"
"574","17",1,"tree.flower","tree","flower","noun","and/noun","right","noun",5867,"11/18/2015","13:32","F","55","English"
"575","17",2,"dog.cat","dog","cat","or","and/noun","left","and",2801,"11/18/2015","13:32","F","55","English"
"576","17",3,"clock.lamp","clock","lamp","or","and/noun","left","and",2386,"11/18/2015","13:32","F","55","English"
"577","17",4,"hat.mitten","hat","mitten","or","and/or","right","or",6328,"11/18/2015","13:32","F","55","English"
"578","17",5,"necklace.dress","necklace","dress","or","or/noun","left","or",15811,"11/18/2015","13:32","F","55","English"
"579","17",6,"pig.goat","pig","goat","noun","and/or","right","or",6721,"11/18/2015","13:32","F","55","English"
"580","17",7,"frog.turtle","frog","turtle","and","and/noun","left","and",1841,"11/18/2015","13:32","F","55","English"
"581","17",8,"drum.guitar","guitar","drum","and","and/or","left","and",5452,"11/18/2015","13:32","F","55","English"
"582","17",9,"present.party_hat","present","party_hat","noun","and/noun","right","noun",7945,"11/18/2015","13:33","F","55","English"
"583","17",10,"cake.donut","cake","donut","or","and/or","right","or",4970,"11/18/2015","13:33","F","55","English"
"584","17",11,"plate.fork","fork","plate","noun","and/noun","right","noun",2333,"11/18/2015","13:33","F","55","English"
"585","17",12,"scissors.paintbrush","scissors","paintbrush","and","and/or","left","and",2894,"11/18/2015","13:33","F","55","English"
"586","17",13,"purse.watch","purse","watch","noun","or/noun","right","noun",2091,"11/18/2015","13:33","F","55","English"
"587","17",14,"train.firetruck","train","firetruck","and","and/noun","left","and",2370,"11/18/2015","13:33","F","55","English"
"588","17",15,"pencil.crayon","pencil","crayon","noun","and/or","right","or",3266,"11/18/2015","13:33","F","55","English"
"589","17",16,"comb.toothbrush","comb","toothbrush","or","and/or","right","or",4650,"11/18/2015","13:33","F","55","English"
"590","17",17,"cookie.pretzel","pretzel","cookie","and","or/noun","left","or",4483,"11/18/2015","13:33","F","55","English"
"591","17",18,"plane.boat","boat","plane","noun","or/noun","right","noun",6116,"11/18/2015","13:33","F","55","English"
"592","17",19,"penguin.fish","fish","penguin","or","or/noun","left","or",4369,"11/18/2015","13:33","F","55","English"
"593","17",20,"butterfly.bee","bee","butterfly","noun","and/noun","right","noun",2227,"11/18/2015","13:33","F","55","English"
"594","17",21,"bear.sheep","bear","sheep","and","and/noun","left","and",3622,"11/18/2015","13:34","F","55","English"
"595","17",22,"chicken.duck","duck","chicken","and","and/noun","left","and",4501,"11/18/2015","13:34","F","55","English"
"596","17",23,"cupcake.popsicle","popsicle","cupcake","and","and/or","left","and",5823,"11/18/2015","13:34","F","55","English"
"597","17",24,"car.bus","car","bus","or","and/or","right","or",5514,"11/18/2015","13:34","F","55","English"
"598","17",25,"shorts.shirt","shirt","shorts","noun","and/or","right","or",9194,"11/18/2015","13:34","F","55","English"
"599","17",26,"bird.monkey","bird","monkey","noun","or/noun","right","noun",3085,"11/18/2015","13:34","F","55","English"
"600","17",27,"giraffe.elephant","giraffe","elephant","and","or/noun","left","or",2997,"11/18/2015","13:34","F","55","English"
"601","17",28,"carrot.strawberry","strawberry","carrot","or","or/noun","left","or",2385,"11/18/2015","13:34","F","55","English"
"602","17",29,"tiger.lion","lion","tiger","or","or/noun","left","or",2286,"11/18/2015","13:34","F","55","English"
"603","17",30,"cup.spoon","spoon","cup","and","and/or","left","and",2081,"11/18/2015","13:34","F","55","English"
"604","17",31,"sock.shoe","sock","shoe","or","and/noun","left","and",3729,"11/18/2015","13:34","F","55","English"
"605","17",32,"apple.pear","apple","pear","and","or/noun","left","or",2378,"11/18/2015","13:34","F","55","English"
"606","17",33,"banana.orange","orange","banana","and","or/noun","left","or",2891,"11/18/2015","13:35","F","55","English"
"607","17",34,"horse.cow","cow","horse","noun","or/noun","right","noun",3228,"11/18/2015","13:35","F","55","English"
"608","17",35,"table.chair","table","chair","or","and/noun","left","and",2583,"11/18/2015","13:35","F","55","English"
"609","17",36,"house.barn","house","barn","noun","and/or","right","or",6012,"11/18/2015","13:35","F","55","English"
"610","18",1,"clock.lamp","clock","lamp","and","and/or","left","and",10361,"11/18/2015","13:17","F","25","English"
"611","18",2,"banana.orange","orange","banana","noun","and/noun","right","noun",3868,"11/18/2015","13:17","F","25","English"
"612","18",3,"dog.cat","cat","dog","noun","or/noun","right","noun",2279,"11/18/2015","13:17","F","25","English"
"613","18",4,"butterfly.bee","bee","butterfly","and","or/noun","left","or",2396,"11/18/2015","13:17","F","25","English"
"614","18",5,"car.bus","car","bus","or","and/noun","left","and",2459,"11/18/2015","13:17","F","25","English"
"615","18",6,"train.firetruck","train","firetruck","and","and/or","left","and",1877,"11/18/2015","13:17","F","25","English"
"616","18",7,"cupcake.popsicle","cupcake","popsicle","and","and/noun","left","and",2683,"11/18/2015","13:17","F","25","English"
"617","18",8,"scissors.paintbrush","paintbrush","scissors","noun","and/noun","right","noun",2825,"11/18/2015","13:17","F","25","English"
"618","18",9,"table.chair","table","chair","and","and/noun","left","and",2173,"11/18/2015","13:17","F","25","English"
"619","18",10,"comb.toothbrush","comb","toothbrush","noun","and/or","right","or",2859,"11/18/2015","13:17","F","25","English"
"620","18",11,"hat.mitten","mitten","hat","noun","and/noun","right","noun",2624,"11/18/2015","13:17","F","25","English"
"621","18",12,"frog.turtle","turtle","frog","or","and/or","left","and",2086,"11/18/2015","13:17","F","25","English"
"622","18",13,"plane.boat","plane","boat","noun","and/or","right","or",2681,"11/18/2015","13:17","F","25","English"
"623","18",14,"shorts.shirt","shirt","shorts","or","or/noun","left","or",2413,"11/18/2015","13:18","F","25","English"
"624","18",15,"carrot.strawberry","strawberry","carrot","or","and/or","right","or",2693,"11/18/2015","13:18","F","25","English"
"625","18",16,"sock.shoe","shoe","sock","and","or/noun","left","or",2425,"11/18/2015","13:18","F","25","English"
"626","18",17,"chicken.duck","duck","chicken","noun","and/noun","right","noun",1800,"11/18/2015","13:18","F","25","English"
"627","18",18,"pig.goat","goat","pig","and","and/or","left","and",1601,"11/18/2015","13:18","F","25","English"
"628","18",19,"drum.guitar","drum","guitar","or","or/noun","left","or",2428,"11/18/2015","13:18","F","25","English"
"629","18",20,"horse.cow","cow","horse","or","and/noun","left","and",5100,"11/18/2015","13:18","F","25","English"
"630","18",21,"tree.flower","flower","tree","noun","and/or","right","or",3431,"11/18/2015","13:18","F","25","English"
"631","18",22,"present.party_hat","present","party_hat","noun","or/noun","right","noun",2170,"11/18/2015","13:18","F","25","English"
"632","18",23,"giraffe.elephant","elephant","giraffe","and","and/or","left","and",1879,"11/18/2015","13:18","F","25","English"
"633","18",24,"bird.monkey","bird","monkey","or","and/or","right","or",2107,"11/18/2015","13:18","F","25","English"
"634","18",25,"cup.spoon","spoon","cup","or","or/noun","left","or",2329,"11/18/2015","13:18","F","25","English"
"635","18",26,"house.barn","barn","house","and","and/noun","left","and",1681,"11/18/2015","13:18","F","25","English"
"636","18",27,"purse.watch","watch","purse","or","or/noun","left","or",3050,"11/18/2015","13:18","F","25","English"
"637","18",28,"apple.pear","apple","pear","noun","or/noun","right","noun",1794,"11/18/2015","13:18","F","25","English"
"638","18",29,"bear.sheep","sheep","bear","and","or/noun","left","or",2149,"11/18/2015","13:18","F","25","English"
"639","18",30,"penguin.fish","penguin","fish","noun","and/or","right","or",1810,"11/18/2015","13:18","F","25","English"
"640","18",31,"tiger.lion","lion","tiger","and","and/noun","left","and",1728,"11/18/2015","13:18","F","25","English"
"641","18",32,"cake.donut","cake","donut","or","and/noun","left","and",2002,"11/18/2015","13:19","F","25","English"
"642","18",33,"cookie.pretzel","pretzel","cookie","noun","or/noun","right","noun",1461,"11/18/2015","13:19","F","25","English"
"643","18",34,"pencil.crayon","pencil","crayon","or","and/noun","left","and",1376,"11/18/2015","13:19","F","25","English"
"644","18",35,"plate.fork","plate","fork","or","and/or","left","and",1544,"11/18/2015","13:19","F","25","English"
"645","18",36,"necklace.dress","necklace","dress","and","or/noun","left","or",2052,"11/18/2015","13:19","F","25","English"
"646","19",1,"bird.monkey","bird","monkey","noun","and/or","left","and",2842,"11/18/2015","12:21","F","45","English"
"647","19",2,"hat.mitten","hat","mitten","and","and/or","left","and",7443,"11/18/2015","12:21","F","45","English"
"648","19",3,"tiger.lion","tiger","lion","noun","and/noun","right","noun",1974,"11/18/2015","12:21","F","45","English"
"649","19",4,"butterfly.bee","butterfly","bee","and","and/or","left","and",3283,"11/18/2015","12:21","F","45","English"
"650","19",5,"tree.flower","flower","tree","noun","or/noun","right","noun",2235,"11/18/2015","12:21","F","45","English"
"651","19",6,"necklace.dress","dress","necklace","or","or/noun","left","or",2794,"11/18/2015","12:21","F","45","English"
"652","19",7,"frog.turtle","frog","turtle","noun","and/noun","right","noun",1427,"11/18/2015","12:21","F","45","English"
"653","19",8,"present.party_hat","present","party_hat","and","or/noun","left","or",4516,"11/18/2015","12:22","F","45","English"
"654","19",9,"train.firetruck","train","firetruck","or","and/or","right","or",2544,"11/18/2015","12:22","F","45","English"
"655","19",10,"horse.cow","cow","horse","noun","or/noun","right","noun",1360,"11/18/2015","12:22","F","45","English"
"656","19",11,"bear.sheep","bear","sheep","noun","and/or","left","and",4515,"11/18/2015","12:22","F","45","English"
"657","19",12,"shorts.shirt","shirt","shorts","and","and/noun","left","and",1715,"11/18/2015","12:22","F","45","English"
"658","19",13,"plane.boat","plane","boat","or","or/noun","left","or",1925,"11/18/2015","12:22","F","45","English"
"659","19",14,"cupcake.popsicle","popsicle","cupcake","and","and/or","left","and",2820,"11/18/2015","12:22","F","45","English"
"660","19",15,"sock.shoe","shoe","sock","noun","and/noun","right","noun",1525,"11/18/2015","12:22","F","45","English"
"661","19",16,"chicken.duck","duck","chicken","or","and/or","right","or",3486,"11/18/2015","12:22","F","45","English"
"662","19",17,"scissors.paintbrush","scissors","paintbrush","and","and/noun","left","and",2083,"11/18/2015","12:22","F","45","English"
"663","19",18,"plate.fork","fork","plate","and","or/noun","left","or",2295,"11/18/2015","12:22","F","45","English"
"664","19",19,"apple.pear","apple","pear","noun","or/noun","right","noun",1372,"11/18/2015","12:22","F","45","English"
"665","19",20,"pencil.crayon","crayon","pencil","noun","and/or","right","or",3479,"11/18/2015","12:22","F","45","English"
"666","19",21,"car.bus","car","bus","and","and/noun","left","and",3790,"11/18/2015","12:22","F","45","English"
"667","19",22,"cake.donut","cake","donut","or","and/noun","left","and",3326,"11/18/2015","12:22","F","45","English"
"668","19",23,"house.barn","barn","house","noun","and/noun","right","noun",1644,"11/18/2015","12:22","F","45","English"
"669","19",24,"comb.toothbrush","comb","toothbrush","or","and/noun","left","and",1420,"11/18/2015","12:22","F","45","English"
"670","19",25,"table.chair","chair","table","or","or/noun","left","or",24311,"11/18/2015","12:23","F","45","English"
"671","19",26,"clock.lamp","clock","lamp","and","and/or","left","and",3146,"11/18/2015","12:23","F","45","English"
"672","19",27,"drum.guitar","guitar","drum","or","and/noun","left","and",2452,"11/18/2015","12:23","F","45","English"
"673","19",28,"giraffe.elephant","elephant","giraffe","noun","and/or","right","or",2450,"11/18/2015","12:23","F","45","English"
"674","19",29,"cup.spoon","cup","spoon","or","and/noun","left","and",3464,"11/18/2015","12:23","F","45","English"
"675","19",30,"cookie.pretzel","cookie","pretzel","and","or/noun","left","or",2155,"11/18/2015","12:23","F","45","English"
"676","19",31,"pig.goat","goat","pig","or","and/or","right","or",2431,"11/18/2015","12:23","F","45","English"
"677","19",32,"dog.cat","dog","cat","or","and/or","right","or",1665,"11/18/2015","12:23","F","45","English"
"678","19",33,"purse.watch","purse","watch","and","or/noun","left","or",2420,"11/18/2015","12:23","F","45","English"
"679","19",34,"penguin.fish","fish","penguin","or","or/noun","left","or",1808,"11/18/2015","12:23","F","45","English"
"680","19",35,"carrot.strawberry","strawberry","carrot","and","and/noun","left","and",1994,"11/18/2015","12:23","F","45","English"
"681","19",36,"banana.orange","orange","banana","noun","or/noun","right","noun",1186,"11/18/2015","12:24","F","45","English"
"682","20",1,"apple.pear","apple","pear","and","and/or","left","and",3525,"11/18/2015","13:18","F","35","English"
"683","20",2,"train.firetruck","train","firetruck","or","and/or","right","or",1753,"11/18/2015","13:18","F","35","English"
"684","20",3,"bear.sheep","bear","sheep","and","or/noun","left","or",1799,"11/18/2015","13:18","F","35","English"
"685","20",4,"present.party_hat","present","party_hat","or","or/noun","left","or",2114,"11/18/2015","13:18","F","35","English"
"686","20",5,"hat.mitten","mitten","hat","noun","and/noun","right","noun",1420,"11/18/2015","13:18","F","35","English"
"687","20",6,"pencil.crayon","pencil","crayon","and","and/noun","left","and",2216,"11/18/2015","13:18","F","35","English"
"688","20",7,"house.barn","house","barn","or","and/noun","left","and",1412,"11/18/2015","13:18","F","35","English"
"689","20",8,"bird.monkey","bird","monkey","and","and/or","left","and",1554,"11/18/2015","13:18","F","35","English"
"690","20",9,"chicken.duck","duck","chicken","or","or/noun","left","or",1437,"11/18/2015","13:18","F","35","English"
"691","20",10,"purse.watch","watch","purse","or","and/or","right","or",2079,"11/18/2015","13:18","F","35","English"
"692","20",11,"drum.guitar","guitar","drum","or","and/or","right","or",2338,"11/18/2015","13:18","F","35","English"
"693","20",12,"cup.spoon","spoon","cup","noun","and/or","right","or",3420,"11/18/2015","13:18","F","35","English"
"694","20",13,"pig.goat","pig","goat","or","or/noun","left","or",2449,"11/18/2015","13:18","F","35","English"
"695","20",14,"banana.orange","banana","orange","and","and/noun","left","and",1467,"11/18/2015","13:18","F","35","English"
"696","20",15,"cupcake.popsicle","cupcake","popsicle","noun","and/noun","right","noun",1156,"11/18/2015","13:18","F","35","English"
"697","20",16,"tree.flower","flower","tree","and","and/or","left","and",1354,"11/18/2015","13:18","F","35","English"
"698","20",17,"frog.turtle","turtle","frog","or","and/or","right","or",1802,"11/18/2015","13:19","F","35","English"
"699","20",18,"tiger.lion","tiger","lion","noun","and/or","right","or",2023,"11/18/2015","13:19","F","35","English"
"700","20",19,"car.bus","bus","car","and","or/noun","left","or",1488,"11/18/2015","13:19","F","35","English"
"701","20",20,"comb.toothbrush","toothbrush","comb","noun","or/noun","right","noun",1430,"11/18/2015","13:19","F","35","English"
"702","20",21,"shorts.shirt","shirt","shorts","noun","and/or","right","or",4954,"11/18/2015","13:19","F","35","English"
"703","20",22,"sock.shoe","shoe","sock","noun","or/noun","right","noun",995,"11/18/2015","13:19","F","35","English"
"704","20",23,"plane.boat","boat","plane","noun","or/noun","right","noun",1126,"11/18/2015","13:19","F","35","English"
"705","20",24,"butterfly.bee","butterfly","bee","and","and/or","left","and",2730,"11/18/2015","13:19","F","35","English"
"706","20",25,"cookie.pretzel","cookie","pretzel","noun","and/noun","right","noun",1125,"11/18/2015","13:19","F","35","English"
"707","20",26,"clock.lamp","lamp","clock","or","and/noun","left","and",1984,"11/18/2015","13:19","F","35","English"
"708","20",27,"dog.cat","dog","cat","and","or/noun","left","or",2495,"11/18/2015","13:19","F","35","English"
"709","20",28,"scissors.paintbrush","paintbrush","scissors","noun","and/noun","right","noun",938,"11/18/2015","13:19","F","35","English"
"710","20",29,"table.chair","chair","table","or","and/noun","left","and",3838,"11/18/2015","13:19","F","35","English"
"711","20",30,"cake.donut","donut","cake","and","or/noun","left","or",3385,"11/18/2015","13:19","F","35","English"
"712","20",31,"necklace.dress","dress","necklace","noun","and/or","right","or",3298,"11/18/2015","13:19","F","35","English"
"713","20",32,"horse.cow","horse","cow","noun","or/noun","right","noun",1083,"11/18/2015","13:19","F","35","English"
"714","20",33,"giraffe.elephant","elephant","giraffe","or","and/noun","left","and",2302,"11/18/2015","13:19","F","35","English"
"715","20",34,"carrot.strawberry","strawberry","carrot","and","and/noun","left","and",3347,"11/18/2015","13:19","F","35","English"
"716","20",35,"plate.fork","fork","plate","or","or/noun","left","or",3168,"11/18/2015","13:20","F","35","English"
"717","20",36,"penguin.fish","penguin","fish","and","and/noun","left","and",1978,"11/18/2015","13:20","F","35","English"
"718","21",1,"bear.sheep","bear","sheep","noun","and/or","right","or",5627,"11/18/2015","11:14","M","55","English"
"719","21",2,"car.bus","bus","car","or","and/or","right","or",5806,"11/18/2015","11:14","M","55","English"
"720","21",3,"plate.fork","fork","plate","and","and/noun","left","and",3523,"11/18/2015","11:14","M","55","English"
"721","21",4,"tree.flower","flower","tree","noun","and/noun","right","noun",4262,"11/18/2015","11:15","M","55","English"
"722","21",5,"sock.shoe","shoe","sock","and","or/noun","left","or",3292,"11/18/2015","11:15","M","55","English"
"723","21",6,"cup.spoon","spoon","cup","noun","and/noun","right","noun",1781,"11/18/2015","11:15","M","55","English"
"724","21",7,"drum.guitar","guitar","drum","noun","and/noun","right","noun",2067,"11/18/2015","11:15","M","55","English"
"725","21",8,"shorts.shirt","shirt","shorts","noun","or/noun","right","noun",2179,"11/18/2015","11:15","M","55","English"
"726","21",9,"present.party_hat","party_hat","present","and","and/or","left","and",5637,"11/18/2015","11:15","M","55","English"
"727","21",10,"clock.lamp","clock","lamp","and","and/noun","left","and",5789,"11/18/2015","11:15","M","55","English"
"728","21",11,"dog.cat","cat","dog","or","or/noun","left","or",3538,"11/18/2015","11:15","M","55","English"
"729","21",12,"pencil.crayon","pencil","crayon","and","or/noun","left","or",2470,"11/18/2015","11:15","M","55","English"
"730","21",13,"apple.pear","apple","pear","and","and/or","left","and",4593,"11/18/2015","11:15","M","55","English"
"731","21",14,"plane.boat","boat","plane","or","and/noun","right","noun",7788,"11/18/2015","11:15","M","55","English"
"732","21",15,"cookie.pretzel","cookie","pretzel","or","and/or","right","or",2878,"11/18/2015","11:15","M","55","English"
"733","21",16,"hat.mitten","mitten","hat","noun","and/noun","right","noun",1812,"11/18/2015","11:16","M","55","English"
"734","21",17,"butterfly.bee","bee","butterfly","noun","and/or","right","or",3605,"11/18/2015","11:16","M","55","English"
"735","21",18,"house.barn","house","barn","noun","and/or","right","or",3197,"11/18/2015","11:16","M","55","English"
"736","21",19,"pig.goat","goat","pig","noun","or/noun","right","noun",3973,"11/18/2015","11:16","M","55","English"
"737","21",20,"bird.monkey","bird","monkey","or","and/noun","right","noun",4235,"11/18/2015","11:16","M","55","English"
"738","21",21,"tiger.lion","lion","tiger","or","and/or","right","or",2467,"11/18/2015","11:16","M","55","English"
"739","21",22,"cupcake.popsicle","popsicle","cupcake","or","or/noun","left","or",2421,"11/18/2015","11:16","M","55","English"
"740","21",23,"chicken.duck","chicken","duck","and","or/noun","left","or",10399,"11/18/2015","11:16","M","55","English"
"741","21",24,"necklace.dress","dress","necklace","and","and/or","left","and",3149,"11/18/2015","11:16","M","55","English"
"742","21",25,"banana.orange","orange","banana","or","and/or","right","or",2596,"11/18/2015","11:16","M","55","English"
"743","21",26,"scissors.paintbrush","scissors","paintbrush","or","and/noun","right","noun",3638,"11/18/2015","11:16","M","55","English"
"744","21",27,"carrot.strawberry","carrot","strawberry","or","or/noun","left","or",3060,"11/18/2015","11:16","M","55","English"
"745","21",28,"giraffe.elephant","giraffe","elephant","and","and/noun","left","and",2309,"11/18/2015","11:16","M","55","English"
"746","21",29,"purse.watch","purse","watch","and","and/or","left","and",3718,"11/18/2015","11:17","M","55","English"
"747","21",30,"penguin.fish","fish","penguin","or","or/noun","left","or",2899,"11/18/2015","11:17","M","55","English"
"748","21",31,"frog.turtle","turtle","frog","noun","or/noun","right","noun",2061,"11/18/2015","11:17","M","55","English"
"749","21",32,"cake.donut","cake","donut","noun","and/or","right","or",5189,"11/18/2015","11:17","M","55","English"
"750","21",33,"table.chair","chair","table","and","and/noun","left","and",13286,"11/18/2015","11:17","M","55","English"
"751","21",34,"comb.toothbrush","comb","toothbrush","noun","or/noun","right","noun",4756,"11/18/2015","11:17","M","55","English"
"752","21",35,"horse.cow","horse","cow","and","or/noun","left","or",1621,"11/18/2015","11:17","M","55","English"
"753","21",36,"train.firetruck","firetruck","train","or","and/noun","right","noun",2956,"11/18/2015","11:17","M","55","English"
"754","22",1,"cake.donut","donut","cake","and","or/noun","left","or",6671,"11/18/2015","12:17","F","35","English"
"755","22",2,"tiger.lion","lion","tiger","and","and/or","left","and",5457,"11/18/2015","12:17","F","35","English"
"756","22",3,"clock.lamp","clock","lamp","noun","and/or","right","or",5396,"11/18/2015","12:17","F","35","English"
"757","22",4,"cup.spoon","cup","spoon","noun","and/noun","right","noun",1874,"11/18/2015","12:17","F","35","English"
"758","22",5,"plane.boat","plane","boat","noun","and/or","right","or",4813,"11/18/2015","12:17","F","35","English"
"759","22",6,"car.bus","bus","car","or","and/noun","right","noun",5407,"11/18/2015","12:17","F","35","English"
"760","22",7,"penguin.fish","penguin","fish","or","and/noun","right","noun",5628,"11/18/2015","12:18","F","35","English"
"761","22",8,"bird.monkey","bird","monkey","and","or/noun","left","or",2809,"11/18/2015","12:18","F","35","English"
"762","22",9,"drum.guitar","drum","guitar","noun","and/or","right","or",7905,"11/18/2015","12:18","F","35","English"
"763","22",10,"frog.turtle","frog","turtle","or","and/noun","right","noun",4273,"11/18/2015","12:18","F","35","English"
"764","22",11,"scissors.paintbrush","scissors","paintbrush","or","or/noun","left","or",4502,"11/18/2015","12:18","F","35","English"
"765","22",12,"necklace.dress","necklace","dress","noun","and/noun","right","noun",3257,"11/18/2015","12:18","F","35","English"
"766","22",13,"horse.cow","cow","horse","and","or/noun","left","or",3336,"11/18/2015","12:18","F","35","English"
"767","22",14,"hat.mitten","hat","mitten","and","and/or","left","and",4790,"11/18/2015","12:18","F","35","English"
"768","22",15,"banana.orange","banana","orange","or","or/noun","right","noun",8486,"11/18/2015","12:18","F","35","English"
"769","22",16,"giraffe.elephant","elephant","giraffe","noun","and/noun","right","noun",2599,"11/18/2015","12:18","F","35","English"
"770","22",17,"table.chair","table","chair","or","and/or","right","or",6675,"11/18/2015","12:18","F","35","English"
"771","22",18,"plate.fork","plate","fork","and","or/noun","left","or",4985,"11/18/2015","12:19","F","35","English"
"772","22",19,"chicken.duck","chicken","duck","noun","or/noun","right","noun",2195,"11/18/2015","12:19","F","35","English"
"773","22",20,"butterfly.bee","bee","butterfly","and","and/noun","left","and",5461,"11/18/2015","12:19","F","35","English"
"774","22",21,"apple.pear","pear","apple","and","and/or","left","and",2217,"11/18/2015","12:19","F","35","English"
"775","22",22,"sock.shoe","shoe","sock","and","and/noun","left","and",4017,"11/18/2015","12:19","F","35","English"
"776","22",23,"comb.toothbrush","toothbrush","comb","or","and/noun","right","noun",5540,"11/18/2015","12:19","F","35","English"
"777","22",24,"dog.cat","dog","cat","noun","or/noun","right","noun",1897,"11/18/2015","12:19","F","35","English"
"778","22",25,"bear.sheep","bear","sheep","and","and/or","left","and",3054,"11/18/2015","12:19","F","35","English"
"779","22",26,"shorts.shirt","shirt","shorts","and","and/noun","left","and",2613,"11/18/2015","12:19","F","35","English"
"780","22",27,"purse.watch","watch","purse","noun","or/noun","right","noun",1252,"11/18/2015","12:19","F","35","English"
"781","22",28,"carrot.strawberry","strawberry","carrot","or","or/noun","right","noun",3462,"11/18/2015","12:19","F","35","English"
"782","22",29,"cookie.pretzel","pretzel","cookie","noun","and/or","right","or",4131,"11/18/2015","12:19","F","35","English"
"783","22",30,"pig.goat","pig","goat","or","or/noun","right","noun",4333,"11/18/2015","12:19","F","35","English"
"784","22",31,"present.party_hat","party_hat","present","or","and/or","right","or",7119,"11/18/2015","12:20","F","35","English"
"785","22",32,"train.firetruck","firetruck","train","noun","and/noun","right","noun",6389,"11/18/2015","12:20","F","35","English"
"786","22",33,"pencil.crayon","pencil","crayon","and","and/noun","left","and",2791,"11/18/2015","12:20","F","35","English"
"787","22",34,"tree.flower","tree","flower","or","and/or","right","or",7696,"11/18/2015","12:20","F","35","English"
"788","22",35,"cupcake.popsicle","cupcake","popsicle","noun","or/noun","right","noun",5862,"11/18/2015","12:20","F","35","English"
"789","22",36,"house.barn","barn","house","or","and/or","right","or",5213,"11/18/2015","12:20","F","35","English"
"790","23",1,"frog.turtle","turtle","frog","and","or/noun","left","or",5594,"11/18/2015","11:30","M","55","English"
"791","23",2,"hat.mitten","hat","mitten","noun","or/noun","right","noun",2542,"11/18/2015","11:30","M","55","English"
"792","23",3,"train.firetruck","firetruck","train","or","and/or","right","or",7651,"11/18/2015","11:30","M","55","English"
"793","23",4,"necklace.dress","dress","necklace","and","and/or","left","and",12324,"11/18/2015","11:30","M","55","English"
"794","23",5,"house.barn","house","barn","and","and/noun","left","and",3496,"11/18/2015","11:30","M","55","English"
"795","23",6,"chicken.duck","duck","chicken","noun","and/noun","right","noun",2775,"11/18/2015","11:30","M","55","English"
"796","23",7,"cake.donut","cake","donut","and","or/noun","left","or",3595,"11/18/2015","11:31","M","55","English"
"797","23",8,"carrot.strawberry","carrot","strawberry","or","or/noun","left","or",3042,"11/18/2015","11:31","M","55","English"
"798","23",9,"car.bus","car","bus","noun","and/noun","right","noun",1771,"11/18/2015","11:31","M","55","English"
"799","23",10,"apple.pear","apple","pear","and","and/noun","left","and",2462,"11/18/2015","11:31","M","55","English"
"800","23",11,"bird.monkey","bird","monkey","noun","and/or","right","or",6717,"11/18/2015","11:31","M","55","English"
"801","23",12,"plane.boat","boat","plane","and","and/noun","left","and",2749,"11/18/2015","11:31","M","55","English"
"802","23",13,"table.chair","chair","table","or","and/noun","left","and",2234,"11/18/2015","11:31","M","55","English"
"803","23",14,"comb.toothbrush","toothbrush","comb","noun","and/or","right","or",4726,"11/18/2015","11:31","M","55","English"
"804","23",15,"dog.cat","cat","dog","and","and/or","left","and",3421,"11/18/2015","11:31","M","55","English"
"805","23",16,"clock.lamp","lamp","clock","or","and/or","right","or",9674,"11/18/2015","11:31","M","55","English"
"806","23",17,"cookie.pretzel","cookie","pretzel","or","or/noun","left","or",4386,"11/18/2015","11:31","M","55","English"
"807","23",18,"bear.sheep","bear","sheep","or","and/noun","left","and",6605,"11/18/2015","11:32","M","55","English"
"808","23",19,"giraffe.elephant","elephant","giraffe","noun","and/or","right","or",2939,"11/18/2015","11:32","M","55","English"
"809","23",20,"cupcake.popsicle","popsicle","cupcake","noun","or/noun","right","noun",2148,"11/18/2015","11:32","M","55","English"
"810","23",21,"purse.watch","watch","purse","noun","and/noun","right","noun",1604,"11/18/2015","11:32","M","55","English"
"811","23",22,"tiger.lion","lion","tiger","or","and/or","right","or",2868,"11/18/2015","11:32","M","55","English"
"812","23",23,"pencil.crayon","crayon","pencil","and","or/noun","left","or",2401,"11/18/2015","11:32","M","55","English"
"813","23",24,"butterfly.bee","bee","butterfly","and","or/noun","left","or",2246,"11/18/2015","11:32","M","55","English"
"814","23",25,"horse.cow","horse","cow","noun","or/noun","right","noun",1820,"11/18/2015","11:32","M","55","English"
"815","23",26,"tree.flower","flower","tree","or","or/noun","left","or",2484,"11/18/2015","11:32","M","55","English"
"816","23",27,"plate.fork","plate","fork","noun","or/noun","right","noun",2532,"11/18/2015","11:32","M","55","English"
"817","23",28,"present.party_hat","party_hat","present","or","and/noun","right","noun",2924,"11/18/2015","11:32","M","55","English"
"818","23",29,"shorts.shirt","shirt","shorts","noun","and/noun","right","noun",2172,"11/18/2015","11:32","M","55","English"
"819","23",30,"banana.orange","banana","orange","or","or/noun","left","or",1886,"11/18/2015","11:32","M","55","English"
"820","23",31,"sock.shoe","sock","shoe","and","and/noun","left","and",2204,"11/18/2015","11:32","M","55","English"
"821","23",32,"scissors.paintbrush","paintbrush","scissors","noun","and/or","right","or",4277,"11/18/2015","11:32","M","55","English"
"822","23",33,"drum.guitar","drum","guitar","or","and/or","right","or",3725,"11/18/2015","11:32","M","55","English"
"823","23",34,"pig.goat","goat","pig","and","and/or","left","and",12811,"11/18/2015","11:33","M","55","English"
"824","23",35,"penguin.fish","fish","penguin","or","and/noun","left","and",3254,"11/18/2015","11:33","M","55","English"
"825","23",36,"cup.spoon","spoon","cup","and","and/or","left","and",5523,"11/18/2015","11:33","M","55","English"
"826","24",1,"bird.monkey","bird","monkey","and","or/noun","left","or",4932,"11/18/2015","10:16","F","25","English"
"827","24",2,"dog.cat","cat","dog","and","and/noun","left","and",1795,"11/18/2015","10:17","F","25","English"
"828","24",3,"car.bus","bus","car","noun","and/or","right","or",7246,"11/18/2015","10:17","F","25","English"
"829","24",4,"pencil.crayon","pencil","crayon","and","and/or","left","and",2470,"11/18/2015","10:17","F","25","English"
"830","24",5,"necklace.dress","necklace","dress","noun","and/noun","right","noun",1827,"11/18/2015","10:17","F","25","English"
"831","24",6,"pig.goat","goat","pig","and","or/noun","left","or",2590,"11/18/2015","10:17","F","25","English"
"832","24",7,"train.firetruck","train","firetruck","noun","and/or","right","or",3142,"11/18/2015","10:17","F","25","English"
"833","24",8,"tiger.lion","lion","tiger","or","and/noun","left","and",1909,"11/18/2015","10:17","F","25","English"
"834","24",9,"plane.boat","boat","plane","noun","or/noun","right","noun",3581,"11/18/2015","10:17","F","25","English"
"835","24",10,"banana.orange","orange","banana","or","or/noun","left","or",3142,"11/18/2015","10:17","F","25","English"
"836","24",11,"scissors.paintbrush","scissors","paintbrush","and","and/noun","left","and",3215,"11/18/2015","10:17","F","25","English"
"837","24",12,"butterfly.bee","butterfly","bee","and","and/or","left","and",1782,"11/18/2015","10:17","F","25","English"
"838","24",13,"frog.turtle","frog","turtle","or","and/or","right","or",4541,"11/18/2015","10:17","F","25","English"
"839","24",14,"present.party_hat","party_hat","present","noun","and/or","right","or",3222,"11/18/2015","10:17","F","25","English"
